Fichero De Datos De SpectraSuite
++++++++++++++++++++++++++++++++++++
Fecha: Wed Apr 22 08:10:14 CEST 2009
Usuario: evoflor
Presente Oscuro Del Espectro: Sí
La Referencia de Presente Del Espectro De: Sí
Muestreados de los componentes de Número de espectros: 1
Espectrómetros: USB4F02353
Tiempo de integración (usec): 500000 (USB4F02353)
Promedio de Espectros Hechos un: 5 (USB4F02353)
El Alisar Del Furgón: 0 (USB4F02353)
Párrafo de de Corregir del la del del de Eléctrica del obscuridad: Sí (USB4F02353)
Estrobo/Lámpara Permitido: No (USB4F02353)
Correct for Detector Non-linearity: No (USB4F02353)
Párrafo de de Corregir del la del del de Externa del luz: No (USB4F02353)
Procesado del espectro de Número de pixeles en: 3648
>>>>> Comienza Data<<<<< Espectral Procesado Del EL
177,79	749,535
178,00	749,535
178,22	749,535
178,44	-8461,282
178,66	530,059
178,88	135,686
179,09	3096,401
179,31	171,836
179,53	-3490,815
179,75	282,469
179,96	0,310
180,18	212,937
180,40	-234,063
180,62	-143,494
180,83	-113,809
181,05	-741,151
181,27	-647,653
181,49	4,894
181,70	-315,799
181,92	342,099
182,14	192,254
182,36	-1695,606
182,58	203,738
182,79	-762,009
183,01	-12149,706
183,23	375,099
183,45	-64,834
183,66	186,899
183,88	711,426
184,10	735,077
184,32	833,016
184,53	-189,197
184,75	652,904
184,97	-207,723
185,18	1145,357
185,40	189,878
185,62	-733,745
185,84	1872,497
186,05	2579,351
186,27	-5991,389
186,49	-862,815
186,71	304,758
186,92	334,948
187,14	1261,669
187,36	281,019
187,58	642,960
187,79	-525,047
188,01	-1114,276
188,23	134,041
188,45	164,915
188,66	75,093
188,88	196,991
189,10	-291,386
189,31	-111,846
189,53	36,905
189,75	1108,197
189,97	105,217
190,18	1579,646
190,40	1233,001
190,62	218,224
190,83	389,505
191,05	-167,612
191,27	6735,501
191,49	518,944
191,70	553,939
191,92	454,401
192,14	419,127
192,35	-1592,008
192,57	-858,212
192,79	-1676,172
193,01	509,675
193,22	68,825
193,44	-383,422
193,66	304,257
193,87	511,624
194,09	114,299
194,31	144,980
194,53	-378,949
194,74	382,888
194,96	4,544
195,18	644,898
195,39	-1199,371
195,61	-333,694
195,83	2474,132
196,04	335,230
196,26	154,404
196,48	2094,906
196,70	409,059
196,91	92,714
197,13	190,978
197,35	174,890
197,56	-382,917
197,78	3894,880
198,00	371,590
198,21	429,634
198,43	880,186
198,65	356,515
198,86	167,066
199,08	259,367
199,30	274,256
199,51	1058,152
199,73	-3115,604
199,95	203,187
200,16	606,001
200,38	123,185
200,60	2484,484
200,81	-430,554
201,03	5418,660
201,25	633,742
201,46	-846,402
201,68	497,398
201,90	563,182
202,11	328,447
202,33	208,789
202,55	99,029
202,76	602,463
202,98	580,861
203,20	249,097
203,41	-1284,509
203,63	516,517
203,85	143,295
204,06	-595,316
204,28	187,270
204,50	-363,436
204,71	421,207
204,93	140,185
205,15	113,809
205,36	-118,951
205,58	-1078,207
205,80	-1914,297
206,01	-2462,818
206,23	215,318
206,45	378,792
206,66	244,408
206,88	-345,760
207,10	1669,193
207,31	-43023,179
207,53	301,539
207,75	-114,494
207,96	344,779
208,18	292,066
208,39	246,819
208,61	479,834
208,83	7225,511
209,04	329,969
209,26	185,862
209,48	28,755
209,69	-103,925
209,91	732,535
210,13	13,142
210,34	141,378
210,56	281,312
210,77	697,413
210,99	311,080
211,21	-311,944
211,42	156,615
211,64	785,969
211,86	190,762
212,07	160,875
212,29	644,064
212,50	1319,304
212,72	233,673
212,94	-42,256
213,15	11,497
213,37	769,487
213,58	161,245
213,80	366,049
214,02	2688,214
214,23	313,426
214,45	246,468
214,67	70,330
214,88	-233,259
215,10	1062,877
215,31	250,269
215,53	78,233
215,75	261,179
215,96	462,243
216,18	204,858
216,39	193,197
216,61	399,259
216,83	1193,729
217,04	369,137
217,26	-25,284
217,47	461,621
217,69	244,318
217,91	109,300
218,12	1360,777
218,34	89,817
218,55	140,476
218,77	33,932
218,99	156,087
219,20	205,114
219,42	396,371
219,63	69,143
219,85	224,382
220,06	-387,355
220,28	120,596
220,50	71,830
220,71	76,155
220,93	361,051
221,14	362,061
221,36	84,238
221,58	111,961
221,79	59,533
222,01	179,212
222,22	250,401
222,44	13,089
222,65	147,935
222,87	24,897
223,09	86,706
223,30	71,736
223,52	211,440
223,73	49,901
223,95	8,625
224,16	-19,210
224,38	25,470
224,60	69,272
224,81	111,809
225,03	136,053
225,24	100,337
225,46	5,647
225,67	25,477
225,89	56,544
226,10	127,006
226,32	148,041
226,54	12,695
226,75	6,316
226,97	111,038
227,18	93,835
227,40	88,710
227,61	28,524
227,83	34,217
228,04	111,046
228,26	79,485
228,47	23,183
228,69	91,793
228,91	41,965
229,12	128,145
229,34	14,885
229,55	50,574
229,77	38,779
229,98	32,469
230,20	49,367
230,41	-10,467
230,63	62,816
230,84	33,307
231,06	60,492
231,27	-8,533
231,49	31,052
231,71	34,851
231,92	10,975
232,14	-4,535
232,35	31,185
232,57	7,077
232,78	21,058
233,00	26,569
233,21	26,876
233,43	19,020
233,64	5,558
233,86	22,837
234,07	38,646
234,29	19,701
234,50	7,305
234,72	24,266
234,93	24,693
235,15	9,183
235,36	19,328
235,58	44,557
235,79	22,762
236,01	6,847
236,22	27,771
236,44	31,835
236,65	20,529
236,87	23,803
237,08	18,657
237,30	-2,236
237,51	27,712
237,73	22,179
237,94	11,683
238,16	18,086
238,37	10,008
238,59	1,725
238,80	12,385
239,02	9,156
239,23	23,811
239,45	13,327
239,66	26,199
239,88	25,293
240,09	22,925
240,31	11,225
240,52	11,914
240,74	14,638
240,95	19,120
241,17	16,786
241,38	9,327
241,60	5,633
241,81	20,834
242,03	5,838
242,24	16,981
242,46	14,206
242,67	2,291
242,89	19,359
243,10	11,442
243,32	21,019
243,53	18,621
243,75	9,505
243,96	12,249
244,18	9,666
244,39	19,419
244,60	4,683
244,82	8,850
245,03	14,693
245,25	13,657
245,46	26,601
245,68	4,674
245,89	27,643
246,11	23,482
246,32	8,881
246,54	12,660
246,75	6,846
246,97	17,389
247,18	20,091
247,39	8,850
247,61	13,669
247,82	9,466
248,04	6,167
248,25	8,124
248,47	8,037
248,68	11,401
248,90	7,566
249,11	8,632
249,33	17,056
249,54	9,943
249,75	11,245
249,97	5,525
250,18	16,879
250,40	15,358
250,61	10,477
250,83	4,498
251,04	6,705
251,25	16,331
251,47	13,372
251,68	7,144
251,90	9,386
252,11	9,909
252,33	11,583
252,54	9,808
252,76	3,583
252,97	3,410
253,18	8,666
253,40	11,467
253,61	5,894
253,83	10,180
254,04	13,505
254,25	4,606
254,47	4,666
254,68	12,027
254,90	4,911
255,11	6,670
255,33	11,731
255,54	8,095
255,75	4,880
255,97	7,341
256,18	5,472
256,40	8,385
256,61	10,136
256,82	8,180
257,04	10,936
257,25	7,567
257,47	10,112
257,68	15,401
257,89	9,169
258,11	6,044
258,32	11,615
258,54	4,899
258,75	14,921
258,96	8,218
259,18	10,057
259,39	6,960
259,61	12,511
259,82	4,566
260,03	3,585
260,25	9,856
260,46	8,286
260,68	6,249
260,89	7,022
261,10	10,139
261,32	8,838
261,53	1,675
261,75	10,043
261,96	8,431
262,17	20,304
262,39	11,466
262,60	3,312
262,81	6,292
263,03	15,272
263,24	10,780
263,46	5,574
263,67	11,988
263,88	8,742
264,10	6,171
264,31	7,399
264,52	5,960
264,74	9,088
264,95	6,882
265,17	9,369
265,38	8,928
265,59	11,607
265,81	11,434
266,02	4,099
266,23	2,377
266,45	12,460
266,66	10,551
266,87	9,430
267,09	6,251
267,30	12,083
267,52	14,150
267,73	9,065
267,94	8,816
268,16	8,374
268,37	3,499
268,58	10,930
268,80	3,363
269,01	7,991
269,22	11,352
269,44	10,795
269,65	11,047
269,86	7,125
270,08	9,146
270,29	5,875
270,50	5,557
270,72	10,661
270,93	3,709
271,14	6,976
271,36	5,576
271,57	9,380
271,78	7,696
272,00	5,758
272,21	10,290
272,42	7,551
272,64	13,828
272,85	5,597
273,06	7,272
273,28	8,394
273,49	5,253
273,70	9,513
273,92	9,262
274,13	8,404
274,34	3,013
274,56	12,598
274,77	8,692
274,98	13,146
275,20	11,109
275,41	10,578
275,62	5,396
275,84	8,167
276,05	14,919
276,26	6,445
276,47	8,075
276,69	13,590
276,90	14,655
277,11	8,016
277,33	5,014
277,54	10,676
277,75	9,228
277,97	4,524
278,18	7,128
278,39	13,314
278,61	3,817
278,82	11,797
279,03	8,553
279,24	6,698
279,46	10,223
279,67	11,387
279,88	8,280
280,10	12,052
280,31	6,803
280,52	6,493
280,73	4,207
280,95	9,953
281,16	6,497
281,37	8,717
281,59	8,605
281,80	11,497
282,01	4,253
282,22	2,747
282,44	9,140
282,65	14,290
282,86	9,287
283,08	5,808
283,29	8,706
283,50	3,888
283,71	7,892
283,93	6,883
284,14	3,991
284,35	8,434
284,56	7,230
284,78	3,348
284,99	9,665
285,20	12,340
285,42	6,489
285,63	7,574
285,84	4,192
286,05	6,805
286,27	6,837
286,48	10,802
286,69	8,725
286,90	5,928
287,12	7,786
287,33	6,427
287,54	6,442
287,75	12,146
287,97	4,655
288,18	5,565
288,39	7,728
288,60	7,357
288,82	6,589
289,03	5,168
289,24	8,367
289,45	9,706
289,67	8,070
289,88	5,414
290,09	11,139
290,30	6,543
290,52	4,611
290,73	5,173
290,94	6,353
291,15	7,902
291,37	8,357
291,58	7,578
291,79	8,622
292,00	5,708
292,21	7,574
292,43	8,137
292,64	4,492
292,85	6,384
293,06	10,682
293,28	5,929
293,49	5,594
293,70	10,367
293,91	3,521
294,12	7,055
294,34	5,585
294,55	9,021
294,76	8,182
294,97	9,781
295,19	6,483
295,40	7,863
295,61	5,962
295,82	8,234
296,03	7,623
296,25	7,538
296,46	4,473
296,67	5,295
296,88	9,383
297,09	6,613
297,31	4,215
297,52	7,935
297,73	6,843
297,94	5,136
298,15	8,924
298,37	6,472
298,58	5,323
298,79	7,943
299,00	2,712
299,21	6,517
299,43	3,674
299,64	10,033
299,85	6,117
300,06	3,423
300,27	3,958
300,49	9,498
300,70	9,963
300,91	5,662
301,12	6,668
301,33	9,338
301,54	4,916
301,76	7,415
301,97	6,550
302,18	7,464
302,39	10,782
302,60	6,337
302,82	5,754
303,03	11,121
303,24	6,519
303,45	7,277
303,66	8,235
303,87	3,493
304,09	7,011
304,30	5,211
304,51	6,466
304,72	5,441
304,93	8,464
305,14	5,815
305,36	5,768
305,57	4,352
305,78	9,557
305,99	6,568
306,20	7,724
306,41	4,485
306,62	4,334
306,84	6,412
307,05	7,970
307,26	5,209
307,47	11,178
307,68	5,683
307,89	6,207
308,11	6,524
308,32	7,710
308,53	5,893
308,74	4,652
308,95	7,001
309,16	12,269
309,37	7,280
309,59	3,809
309,80	6,623
310,01	6,807
310,22	9,806
310,43	7,713
310,64	7,489
310,85	7,818
311,06	4,907
311,28	7,315
311,49	8,536
311,70	9,670
311,91	6,339
312,12	3,969
312,33	5,400
312,54	7,052
312,75	9,896
312,97	4,797
313,18	9,537
313,39	4,645
313,60	6,946
313,81	6,872
314,02	7,816
314,23	9,603
314,44	6,149
314,65	3,489
314,87	6,087
315,08	6,497
315,29	4,848
315,50	7,741
315,71	12,072
315,92	10,247
316,13	3,631
316,34	7,075
316,55	8,052
316,77	3,721
316,98	5,462
317,19	5,078
317,40	9,023
317,61	10,863
317,82	8,350
318,03	4,047
318,24	7,070
318,45	10,627
318,66	6,607
318,87	3,306
319,09	7,117
319,30	7,641
319,51	9,590
319,72	7,921
319,93	6,713
320,14	7,907
320,35	8,342
320,56	4,723
320,77	7,814
320,98	10,749
321,19	8,922
321,40	6,217
321,62	8,251
321,83	3,168
322,04	8,105
322,25	8,445
322,46	11,827
322,67	8,469
322,88	10,123
323,09	6,813
323,30	8,944
323,51	13,328
323,72	6,633
323,93	4,728
324,14	7,163
324,35	2,203
324,56	5,547
324,77	4,244
324,99	5,622
325,20	6,510
325,41	6,750
325,62	6,996
325,83	2,092
326,04	4,871
326,25	6,725
326,46	4,533
326,67	5,601
326,88	6,490
327,09	5,868
327,30	6,534
327,51	6,950
327,72	5,740
327,93	5,847
328,14	5,491
328,35	8,483
328,56	6,648
328,77	8,731
328,98	8,171
329,19	5,761
329,40	7,881
329,61	3,816
329,82	4,248
330,04	7,590
330,25	7,538
330,46	6,271
330,67	5,487
330,88	6,968
331,09	4,017
331,30	6,127
331,51	7,755
331,72	7,051
331,93	7,842
332,14	5,986
332,35	8,211
332,56	6,068
332,77	9,575
332,98	5,286
333,19	6,203
333,40	6,652
333,61	5,006
333,82	7,887
334,03	7,189
334,24	13,130
334,45	7,432
334,66	9,297
334,87	5,505
335,08	4,685
335,29	4,769
335,50	4,676
335,71	4,467
335,92	8,795
336,13	7,603
336,34	3,673
336,55	7,171
336,76	9,203
336,97	6,193
337,18	7,845
337,39	7,095
337,60	7,863
337,81	7,053
338,02	6,908
338,23	5,345
338,44	5,003
338,65	2,758
338,86	6,727
339,07	6,218
339,28	6,291
339,49	5,818
339,70	4,058
339,91	6,724
340,11	10,190
340,32	5,780
340,53	5,370
340,74	3,138
340,95	5,241
341,16	7,097
341,37	7,598
341,58	7,767
341,79	6,019
342,00	3,982
342,21	1,204
342,42	5,898
342,63	9,292
342,84	7,993
343,05	6,276
343,26	10,438
343,47	9,383
343,68	4,499
343,89	4,051
344,10	6,034
344,31	5,658
344,52	7,583
344,73	5,561
344,94	6,266
345,14	7,491
345,35	5,807
345,56	2,668
345,77	2,749
345,98	4,138
346,19	8,429
346,40	9,747
346,61	4,326
346,82	7,913
347,03	9,168
347,24	4,134
347,45	6,355
347,66	9,054
347,87	7,137
348,08	9,754
348,28	5,224
348,49	6,296
348,70	6,901
348,91	6,431
349,12	6,132
349,33	7,595
349,54	6,949
349,75	9,355
349,96	6,020
350,17	8,839
350,38	4,541
350,59	5,027
350,80	6,632
351,00	3,900
351,21	12,452
351,42	5,237
351,63	3,845
351,84	6,801
352,05	9,397
352,26	5,316
352,47	7,616
352,68	10,246
352,89	4,474
353,09	4,597
353,30	3,905
353,51	3,823
353,72	10,393
353,93	9,433
354,14	5,864
354,35	7,154
354,56	8,961
354,77	5,451
354,98	1,719
355,18	8,670
355,39	9,591
355,60	4,717
355,81	8,278
356,02	7,246
356,23	4,721
356,44	8,464
356,65	5,417
356,85	9,980
357,06	9,975
357,27	8,572
357,48	3,692
357,69	9,859
357,90	6,589
358,11	0,549
358,32	3,776
358,52	8,473
358,73	4,233
358,94	7,770
359,15	7,784
359,36	9,036
359,57	4,894
359,78	10,871
359,98	7,028
360,19	4,477
360,40	4,729
360,61	8,781
360,82	6,877
361,03	14,308
361,24	17,666
361,44	4,977
361,65	6,799
361,86	4,875
362,07	6,690
362,28	10,678
362,49	7,703
362,70	8,792
362,90	6,542
363,11	4,334
363,32	3,837
363,53	6,690
363,74	9,159
363,95	9,948
364,15	5,456
364,36	10,408
364,57	4,465
364,78	5,806
364,99	4,822
365,20	8,031
365,40	10,310
365,61	5,970
365,82	7,602
366,03	11,433
366,24	3,339
366,45	3,924
366,65	1,986
366,86	7,156
367,07	5,675
367,28	3,164
367,49	2,958
367,69	9,165
367,90	6,128
368,11	8,876
368,32	6,069
368,53	10,301
368,73	5,572
368,94	7,593
369,15	7,193
369,36	9,881
369,57	8,667
369,78	7,109
369,98	7,470
370,19	9,619
370,40	4,119
370,61	7,226
370,82	9,979
371,02	11,150
371,23	7,851
371,44	6,654
371,65	4,231
371,85	10,186
372,06	5,976
372,27	8,063
372,48	5,721
372,69	11,339
372,89	7,888
373,10	5,456
373,31	6,342
373,52	8,551
373,73	9,557
373,93	8,748
374,14	6,982
374,35	7,894
374,56	6,821
374,76	6,731
374,97	6,826
375,18	10,295
375,39	9,714
375,60	9,435
375,80	5,210
376,01	5,939
376,22	6,400
376,43	8,269
376,63	9,230
376,84	9,293
377,05	7,472
377,26	7,365
377,46	6,828
377,67	7,156
377,88	4,011
378,09	6,470
378,29	9,554
378,50	5,685
378,71	7,244
378,92	4,548
379,12	4,777
379,33	6,561
379,54	8,240
379,75	10,513
379,95	8,466
380,16	9,256
380,37	7,953
380,58	4,664
380,78	7,074
380,99	3,769
381,20	6,604
381,41	9,337
381,61	7,399
381,82	9,431
382,03	10,157
382,24	10,139
382,44	5,459
382,65	7,273
382,86	11,181
383,06	10,320
383,27	6,591
383,48	8,163
383,69	7,127
383,89	5,526
384,10	4,966
384,31	6,487
384,51	10,292
384,72	11,758
384,93	8,101
385,14	5,038
385,34	6,257
385,55	5,210
385,76	4,734
385,96	13,167
386,17	8,694
386,38	6,724
386,59	14,239
386,79	10,081
387,00	13,416
387,21	11,954
387,41	6,689
387,62	8,120
387,83	11,378
388,03	9,114
388,24	8,499
388,45	9,477
388,66	8,553
388,86	8,049
389,07	8,925
389,28	16,445
389,48	9,076
389,69	10,441
389,90	4,955
390,10	7,289
390,31	13,530
390,52	8,283
390,72	9,029
390,93	8,777
391,14	9,499
391,34	9,778
391,55	10,617
391,76	13,526
391,96	13,735
392,17	7,301
392,38	10,398
392,58	9,280
392,79	7,950
393,00	6,635
393,20	9,318
393,41	9,169
393,62	13,305
393,82	8,327
394,03	12,123
394,24	8,098
394,44	15,833
394,65	12,431
394,86	9,837
395,06	11,978
395,27	12,033
395,48	11,350
395,68	8,591
395,89	11,236
396,10	14,330
396,30	6,004
396,51	8,406
396,72	13,667
396,92	7,715
397,13	14,129
397,34	7,946
397,54	11,243
397,75	11,111
397,95	9,070
398,16	10,181
398,37	11,499
398,57	6,002
398,78	6,136
398,99	13,035
399,19	13,945
399,40	17,016
399,60	10,628
399,81	13,331
400,02	17,402
400,22	12,462
400,43	14,706
400,64	9,042
400,84	6,522
401,05	13,634
401,25	13,727
401,46	10,279
401,67	15,138
401,87	11,708
402,08	9,868
402,29	12,750
402,49	16,596
402,70	14,955
402,90	10,202
403,11	13,392
403,32	7,844
403,52	11,751
403,73	10,984
403,93	16,272
404,14	20,582
404,35	14,032
404,55	10,596
404,76	11,985
404,96	13,847
405,17	19,164
405,38	18,782
405,58	13,174
405,79	19,777
405,99	19,680
406,20	15,374
406,40	13,336
406,61	15,918
406,82	14,652
407,02	13,314
407,23	11,384
407,43	13,020
407,64	12,906
407,85	15,169
408,05	11,531
408,26	22,048
408,46	20,037
408,67	17,970
408,87	15,406
409,08	12,266
409,29	20,781
409,49	20,277
409,70	15,157
409,90	16,381
410,11	16,983
410,31	16,893
410,52	16,992
410,72	15,775
410,93	17,154
411,14	16,739
411,34	13,437
411,55	16,827
411,75	17,128
411,96	18,593
412,16	17,920
412,37	16,181
412,57	19,050
412,78	20,363
412,99	15,481
413,19	19,802
413,40	16,918
413,60	16,514
413,81	19,814
414,01	15,793
414,22	16,996
414,42	15,815
414,63	16,475
414,83	17,690
415,04	23,747
415,24	20,002
415,45	18,984
415,65	20,428
415,86	21,615
416,07	21,147
416,27	20,481
416,48	21,113
416,68	25,575
416,89	17,196
417,09	20,768
417,30	24,648
417,50	15,302
417,71	23,553
417,91	23,455
418,12	20,002
418,32	19,691
418,53	17,263
418,73	22,948
418,94	17,899
419,14	24,029
419,35	16,772
419,55	20,861
419,76	24,108
419,96	23,544
420,17	19,041
420,37	18,253
420,58	24,948
420,78	24,222
420,99	21,050
421,19	24,332
421,40	28,514
421,60	24,121
421,81	20,842
422,01	21,355
422,22	23,564
422,42	24,858
422,63	25,919
422,83	24,978
423,04	29,445
423,24	31,734
423,45	23,031
423,65	22,646
423,86	29,705
424,06	23,796
424,27	23,711
424,47	24,489
424,67	19,146
424,88	24,424
425,08	23,870
425,29	26,180
425,49	18,633
425,70	21,839
425,90	25,073
426,11	24,560
426,31	24,112
426,52	26,689
426,72	23,594
426,93	22,703
427,13	27,032
427,33	20,916
427,54	25,215
427,74	23,987
427,95	28,084
428,15	23,596
428,36	22,933
428,56	21,767
428,77	24,907
428,97	26,383
429,18	24,911
429,38	25,735
429,58	24,767
429,79	27,632
429,99	23,882
430,20	24,767
430,40	29,778
430,61	24,385
430,81	25,224
431,01	29,384
431,22	27,969
431,42	26,460
431,63	19,920
431,83	26,035
432,04	27,701
432,24	25,119
432,44	25,702
432,65	26,718
432,85	24,488
433,06	27,375
433,26	26,399
433,47	25,292
433,67	22,639
433,87	25,992
434,08	24,997
434,28	22,673
434,49	24,991
434,69	34,206
434,89	30,121
435,10	22,643
435,30	25,823
435,51	24,384
435,71	25,791
435,91	22,129
436,12	21,237
436,32	24,516
436,53	22,512
436,73	25,739
436,93	27,958
437,14	23,197
437,34	27,669
437,55	25,911
437,75	28,846
437,95	28,650
438,16	25,731
438,36	28,587
438,57	28,523
438,77	23,134
438,97	27,784
439,18	26,218
439,38	29,457
439,58	24,794
439,79	28,716
439,99	19,997
440,20	31,010
440,40	32,086
440,60	26,749
440,81	25,661
441,01	27,724
441,21	29,493
441,42	26,954
441,62	29,579
441,83	28,170
442,03	23,015
442,23	28,806
442,44	27,651
442,64	33,250
442,84	24,815
443,05	27,571
443,25	25,754
443,45	28,008
443,66	25,289
443,86	25,729
444,06	29,429
444,27	25,888
444,47	30,810
444,67	28,536
444,88	30,871
445,08	26,559
445,28	23,479
445,49	28,526
445,69	25,573
445,90	31,756
446,10	31,346
446,30	26,965
446,51	27,668
446,71	29,524
446,91	31,329
447,12	33,305
447,32	26,480
447,52	27,214
447,72	31,452
447,93	27,634
448,13	23,515
448,33	32,196
448,54	31,594
448,74	27,087
448,94	25,029
449,15	32,540
449,35	22,419
449,55	30,801
449,76	28,470
449,96	27,587
450,16	29,760
450,37	23,743
450,57	29,065
450,77	27,611
450,98	27,062
451,18	30,726
451,38	29,914
451,58	33,320
451,79	26,283
451,99	28,121
452,19	32,794
452,40	34,650
452,60	26,053
452,80	28,710
453,00	28,697
453,21	25,760
453,41	31,206
453,61	24,220
453,82	32,917
454,02	28,300
454,22	43,471
454,42	31,092
454,63	28,711
454,83	28,001
455,03	33,633
455,24	28,281
455,44	32,190
455,64	26,965
455,84	26,318
456,05	24,954
456,25	20,993
456,45	28,404
456,65	26,828
456,86	30,213
457,06	30,573
457,26	27,674
457,47	33,237
457,67	26,356
457,87	22,514
458,07	30,316
458,28	29,698
458,48	31,789
458,68	23,492
458,88	35,046
459,09	26,804
459,29	33,503
459,49	19,852
459,69	28,100
459,90	30,175
460,10	28,592
460,30	31,181
460,50	27,677
460,71	32,167
460,91	23,836
461,11	31,109
461,31	30,630
461,52	30,125
461,72	27,091
461,92	25,995
462,12	35,669
462,32	24,400
462,53	27,225
462,73	27,165
462,93	30,847
463,13	30,942
463,34	26,842
463,54	28,824
463,74	29,341
463,94	25,652
464,14	33,959
464,35	26,323
464,55	32,664
464,75	33,526
464,95	26,994
465,16	26,350
465,36	33,366
465,56	27,296
465,76	27,246
465,96	30,066
466,17	30,148
466,37	26,086
466,57	31,329
466,77	33,269
466,97	26,834
467,18	31,581
467,38	29,336
467,58	34,809
467,78	34,225
467,98	32,043
468,19	29,788
468,39	31,674
468,59	27,738
468,79	31,411
468,99	28,982
469,19	29,144
469,40	27,353
469,60	27,579
469,80	27,183
470,00	29,614
470,20	31,374
470,41	27,447
470,61	32,680
470,81	31,822
471,01	27,659
471,21	34,046
471,41	31,232
471,62	28,290
471,82	25,380
472,02	29,274
472,22	28,334
472,42	28,947
472,62	33,866
472,83	24,510
473,03	32,422
473,23	28,329
473,43	33,067
473,63	30,661
473,83	28,853
474,03	28,176
474,24	30,351
474,44	27,600
474,64	29,344
474,84	24,563
475,04	25,595
475,24	32,116
475,45	28,911
475,65	28,180
475,85	33,427
476,05	24,089
476,25	28,726
476,45	29,961
476,65	30,317
476,85	29,112
477,06	28,792
477,26	25,590
477,46	26,032
477,66	30,154
477,86	28,254
478,06	32,826
478,26	36,955
478,46	26,508
478,67	29,942
478,87	28,703
479,07	27,359
479,27	31,987
479,47	25,702
479,67	26,097
479,87	26,399
480,07	31,528
480,28	29,178
480,48	25,596
480,68	30,407
480,88	33,571
481,08	30,639
481,28	30,336
481,48	28,227
481,68	26,324
481,88	24,630
482,08	28,234
482,29	30,153
482,49	25,768
482,69	26,812
482,89	26,600
483,09	33,883
483,29	25,164
483,49	26,850
483,69	28,974
483,89	27,497
484,09	25,909
484,29	24,427
484,50	26,979
484,70	29,384
484,90	25,729
485,10	29,143
485,30	29,608
485,50	30,420
485,70	28,581
485,90	25,612
486,10	25,112
486,30	24,283
486,50	27,231
486,70	24,062
486,90	25,703
487,10	28,166
487,30	25,607
487,51	27,251
487,71	25,334
487,91	26,207
488,11	29,848
488,31	26,866
488,51	26,975
488,71	26,271
488,91	26,929
489,11	26,503
489,31	24,682
489,51	28,495
489,71	27,524
489,91	27,626
490,11	28,023
490,31	28,284
490,51	30,041
490,71	29,538
490,91	25,524
491,11	26,096
491,31	29,459
491,51	26,038
491,72	26,303
491,92	27,921
492,12	30,595
492,32	28,713
492,52	30,022
492,72	24,376
492,92	26,330
493,12	29,965
493,32	25,011
493,52	27,554
493,72	27,614
493,92	27,393
494,12	26,143
494,32	28,530
494,52	27,684
494,72	28,004
494,92	26,943
495,12	30,781
495,32	31,755
495,52	30,165
495,72	28,273
495,92	27,313
496,12	30,146
496,32	28,600
496,52	26,666
496,72	30,012
496,92	28,640
497,12	29,108
497,32	30,027
497,52	28,476
497,72	28,198
497,92	29,355
498,12	28,617
498,32	29,558
498,52	27,993
498,72	27,422
498,92	27,704
499,12	29,445
499,32	26,141
499,52	30,536
499,72	31,222
499,92	32,742
500,12	29,777
500,32	28,616
500,52	29,605
500,72	32,812
500,91	31,865
501,11	29,574
501,31	28,711
501,51	30,985
501,71	31,168
501,91	30,826
502,11	27,623
502,31	29,951
502,51	28,029
502,71	31,647
502,91	25,455
503,11	31,038
503,31	31,047
503,51	27,269
503,71	25,990
503,91	29,749
504,11	27,705
504,31	29,169
504,51	26,904
504,71	34,468
504,91	27,582
505,10	31,306
505,30	29,542
505,50	30,142
505,70	28,707
505,90	30,881
506,10	28,213
506,30	28,624
506,50	30,558
506,70	31,143
506,90	30,915
507,10	27,982
507,30	27,675
507,50	28,636
507,70	32,842
507,89	29,904
508,09	29,048
508,29	27,783
508,49	27,297
508,69	29,452
508,89	28,623
509,09	28,997
509,29	30,174
509,49	28,780
509,69	32,719
509,89	30,942
510,09	30,614
510,28	31,329
510,48	28,498
510,68	29,477
510,88	29,258
511,08	29,052
511,28	28,598
511,48	28,034
511,68	23,758
511,88	35,393
512,07	28,325
512,27	28,457
512,47	28,901
512,67	28,617
512,87	27,165
513,07	30,148
513,27	28,054
513,47	28,625
513,67	27,249
513,86	29,824
514,06	30,657
514,26	29,382
514,46	32,433
514,66	27,504
514,86	29,700
515,06	33,874
515,26	30,929
515,45	30,540
515,65	27,912
515,85	31,354
516,05	27,952
516,25	28,647
516,45	30,290
516,65	27,511
516,84	27,824
517,04	31,938
517,24	30,483
517,44	29,351
517,64	31,872
517,84	32,648
518,04	28,253
518,23	30,999
518,43	32,467
518,63	29,708
518,83	27,046
519,03	30,625
519,23	29,338
519,42	31,731
519,62	27,862
519,82	27,757
520,02	28,308
520,22	30,664
520,42	29,299
520,61	32,609
520,81	31,218
521,01	31,526
521,21	29,037
521,41	30,691
521,61	32,528
521,80	28,569
522,00	30,136
522,20	32,702
522,40	30,001
522,60	28,975
522,79	29,409
522,99	35,718
523,19	27,339
523,39	31,238
523,59	30,017
523,78	30,286
523,98	29,158
524,18	31,159
524,38	25,965
524,58	29,268
524,77	32,981
524,97	30,739
525,17	27,559
525,37	30,223
525,57	34,431
525,76	32,492
525,96	34,312
526,16	29,236
526,36	29,342
526,56	31,002
526,75	31,295
526,95	31,789
527,15	30,510
527,35	32,201
527,55	27,662
527,74	28,230
527,94	29,394
528,14	27,343
528,34	30,293
528,53	28,450
528,73	33,870
528,93	32,453
529,13	29,549
529,32	31,059
529,52	31,507
529,72	31,860
529,92	31,384
530,12	29,534
530,31	29,412
530,51	33,883
530,71	29,758
530,91	36,252
531,10	26,282
531,30	30,255
531,50	28,450
531,70	30,609
531,89	32,590
532,09	28,581
532,29	29,932
532,49	29,796
532,68	29,394
532,88	27,730
533,08	29,758
533,28	29,543
533,47	31,284
533,67	32,484
533,87	30,149
534,06	35,288
534,26	28,253
534,46	29,227
534,66	31,696
534,85	31,250
535,05	27,471
535,25	29,034
535,45	29,884
535,64	33,594
535,84	32,569
536,04	25,638
536,23	30,525
536,43	30,826
536,63	27,917
536,83	31,545
537,02	28,661
537,22	27,375
537,42	31,750
537,61	28,916
537,81	28,595
538,01	30,087
538,20	29,372
538,40	27,568
538,60	28,383
538,80	26,843
538,99	28,769
539,19	27,116
539,39	26,115
539,58	26,818
539,78	26,207
539,98	26,378
540,17	23,619
540,37	27,874
540,57	22,715
540,76	24,439
540,96	21,657
541,16	23,639
541,36	22,247
541,55	20,136
541,75	18,790
541,95	21,300
542,14	19,204
542,34	17,934
542,54	17,970
542,73	21,555
542,93	17,369
543,13	18,720
543,32	17,530
543,52	21,270
543,72	18,453
543,91	20,106
544,11	18,408
544,31	16,839
544,50	18,079
544,70	20,346
544,89	20,696
545,09	21,492
545,29	20,857
545,48	24,671
545,68	18,955
545,88	22,315
546,07	22,707
546,27	22,669
546,47	25,150
546,66	23,201
546,86	23,158
547,06	23,753
547,25	23,999
547,45	25,112
547,64	27,727
547,84	28,826
548,04	27,556
548,23	29,866
548,43	28,701
548,63	28,902
548,82	27,841
549,02	28,877
549,21	26,883
549,41	28,498
549,61	28,836
549,80	27,049
550,00	28,790
550,20	26,965
550,39	29,880
550,59	29,184
550,78	29,357
550,98	29,016
551,18	31,116
551,37	29,515
551,57	28,340
551,76	31,272
551,96	28,384
552,16	29,632
552,35	29,612
552,55	27,468
552,74	27,374
552,94	32,481
553,14	26,984
553,33	30,593
553,53	28,812
553,72	28,871
553,92	31,745
554,12	29,262
554,31	30,677
554,51	29,147
554,70	27,388
554,90	28,416
555,09	33,705
555,29	29,411
555,49	31,794
555,68	33,202
555,88	28,234
556,07	29,403
556,27	32,357
556,46	31,709
556,66	28,494
556,86	35,228
557,05	31,192
557,25	28,769
557,44	29,025
557,64	28,351
557,83	30,892
558,03	31,597
558,22	29,050
558,42	29,702
558,62	30,643
558,81	33,777
559,01	32,119
559,20	32,474
559,40	29,823
559,59	30,750
559,79	27,201
559,98	28,851
560,18	29,542
560,37	30,097
560,57	31,567
560,76	30,286
560,96	28,135
561,16	30,422
561,35	27,677
561,55	30,659
561,74	31,688
561,94	31,376
562,13	30,350
562,33	31,551
562,52	31,903
562,72	29,133
562,91	29,688
563,11	30,139
563,30	30,872
563,50	29,975
563,69	30,932
563,89	28,299
564,08	29,844
564,28	30,124
564,47	29,630
564,67	28,966
564,86	29,893
565,06	29,114
565,25	30,112
565,45	29,120
565,64	33,597
565,84	30,366
566,03	28,427
566,23	31,114
566,42	31,958
566,62	30,279
566,81	29,406
567,01	29,844
567,20	29,506
567,40	29,673
567,59	28,842
567,79	32,389
567,98	33,271
568,18	30,632
568,37	33,263
568,57	31,397
568,76	30,008
568,96	31,640
569,15	27,905
569,35	31,172
569,54	32,245
569,73	31,866
569,93	30,393
570,12	29,297
570,32	31,840
570,51	28,810
570,71	32,089
570,90	31,292
571,10	29,808
571,29	29,571
571,49	28,230
571,68	32,301
571,87	31,179
572,07	32,045
572,26	26,531
572,46	29,277
572,65	30,493
572,85	29,005
573,04	30,316
573,24	29,093
573,43	31,818
573,62	29,849
573,82	31,092
574,01	29,064
574,21	27,749
574,40	28,681
574,60	26,143
574,79	32,289
574,98	29,043
575,18	29,588
575,37	27,150
575,57	30,905
575,76	30,685
575,96	30,056
576,15	28,937
576,34	28,501
576,54	29,455
576,73	30,121
576,93	29,903
577,12	30,547
577,31	28,873
577,51	28,430
577,70	29,792
577,90	29,413
578,09	29,093
578,28	28,079
578,48	28,065
578,67	28,564
578,87	30,116
579,06	28,774
579,25	29,486
579,45	30,658
579,64	27,768
579,84	27,167
580,03	29,274
580,22	29,737
580,42	28,055
580,61	28,369
580,81	29,895
581,00	28,061
581,19	29,039
581,39	27,133
581,58	27,783
581,77	27,993
581,97	30,642
582,16	27,665
582,35	27,957
582,55	28,719
582,74	30,454
582,94	30,438
583,13	29,173
583,32	28,211
583,52	30,100
583,71	29,089
583,90	27,855
584,10	29,554
584,29	30,250
584,48	26,765
584,68	27,479
584,87	28,989
585,06	28,473
585,26	27,207
585,45	28,552
585,65	30,381
585,84	28,830
586,03	27,854
586,23	27,328
586,42	28,262
586,61	32,944
586,81	28,679
587,00	27,875
587,19	27,886
587,39	29,698
587,58	27,982
587,77	28,004
587,97	28,026
588,16	28,835
588,35	27,759
588,54	29,056
588,74	29,194
588,93	30,964
589,12	30,011
589,32	28,104
589,51	28,019
589,70	28,243
589,90	26,677
590,09	27,431
590,28	31,452
590,48	26,543
590,67	30,493
590,86	30,577
591,06	28,320
591,25	28,913
591,44	31,392
591,63	28,564
591,83	29,064
592,02	29,795
592,21	28,651
592,41	29,217
592,60	30,412
592,79	29,590
592,98	29,968
593,18	29,420
593,37	29,719
593,56	29,189
593,76	30,391
593,95	28,347
594,14	28,091
594,33	30,425
594,53	30,055
594,72	28,809
594,91	30,350
595,10	29,121
595,30	28,642
595,49	29,745
595,68	30,756
595,88	31,271
596,07	31,041
596,26	31,425
596,45	28,751
596,65	26,936
596,84	28,860
597,03	30,905
597,22	29,050
597,42	31,145
597,61	30,300
597,80	30,821
597,99	29,343
598,19	30,206
598,38	30,742
598,57	28,819
598,76	30,578
598,95	31,091
599,15	30,151
599,34	28,586
599,53	27,782
599,72	28,860
599,92	30,856
600,11	29,134
600,30	29,785
600,49	32,677
600,69	28,941
600,88	29,975
601,07	29,118
601,26	28,527
601,45	29,426
601,65	27,134
601,84	30,002
602,03	28,819
602,22	30,234
602,42	30,429
602,61	28,916
602,80	29,885
602,99	30,328
603,18	27,939
603,38	31,077
603,57	28,889
603,76	27,210
603,95	28,887
604,14	29,862
604,34	28,924
604,53	27,742
604,72	30,218
604,91	29,824
605,10	29,441
605,29	31,416
605,49	28,091
605,68	29,615
605,87	33,209
606,06	30,333
606,25	29,926
606,45	29,835
606,64	30,150
606,83	31,105
607,02	28,875
607,21	29,437
607,40	28,822
607,60	28,494
607,79	28,475
607,98	27,022
608,17	27,915
608,36	27,044
608,55	27,358
608,75	27,431
608,94	28,200
609,13	24,142
609,32	23,034
609,51	26,728
609,70	26,381
609,89	24,316
610,09	22,822
610,28	25,497
610,47	24,522
610,66	23,528
610,85	21,788
611,04	24,538
611,23	23,968
611,43	23,375
611,62	24,648
611,81	22,425
612,00	24,495
612,19	23,086
612,38	24,542
612,57	24,875
612,77	25,368
612,96	24,994
613,15	25,607
613,34	27,537
613,53	25,580
613,72	27,504
613,91	25,231
614,10	26,781
614,29	28,920
614,49	27,285
614,68	26,843
614,87	27,380
615,06	29,465
615,25	27,779
615,44	29,196
615,63	29,475
615,82	27,168
616,01	28,943
616,21	26,171
616,40	29,164
616,59	31,234
616,78	28,055
616,97	30,428
617,16	28,258
617,35	29,569
617,54	27,832
617,73	30,230
617,92	28,331
618,11	30,392
618,31	28,949
618,50	29,963
618,69	28,423
618,88	28,889
619,07	26,469
619,26	27,498
619,45	27,903
619,64	25,983
619,83	28,058
620,02	28,305
620,21	29,269
620,40	30,335
620,59	29,395
620,78	28,207
620,97	29,721
621,17	32,187
621,36	28,247
621,55	28,567
621,74	31,189
621,93	30,679
622,12	30,702
622,31	28,206
622,50	28,869
622,69	30,372
622,88	28,978
623,07	30,634
623,26	29,914
623,45	31,558
623,64	29,011
623,83	27,681
624,02	29,569
624,21	30,875
624,40	28,653
624,59	26,314
624,78	28,643
624,97	32,393
625,16	26,218
625,35	28,331
625,54	27,233
625,73	28,374
625,92	31,087
626,12	30,399
626,31	30,453
626,50	29,713
626,69	28,885
626,88	30,220
627,07	29,319
627,26	29,401
627,45	30,313
627,64	30,798
627,83	29,754
628,02	27,302
628,21	29,479
628,40	29,810
628,59	30,226
628,78	28,893
628,97	29,828
629,16	28,326
629,35	30,021
629,54	29,234
629,73	30,101
629,92	28,429
630,10	30,693
630,29	29,613
630,48	28,098
630,67	28,043
630,86	29,602
631,05	28,451
631,24	30,704
631,43	28,064
631,62	28,868
631,81	28,812
632,00	29,117
632,19	27,814
632,38	30,798
632,57	31,607
632,76	28,040
632,95	30,052
633,14	32,304
633,33	32,513
633,52	30,411
633,71	30,689
633,90	28,534
634,09	29,735
634,28	29,850
634,47	29,670
634,66	30,443
634,85	30,256
635,04	32,001
635,22	29,779
635,41	29,648
635,60	31,914
635,79	31,889
635,98	29,643
636,17	30,793
636,36	28,583
636,55	29,547
636,74	28,809
636,93	29,874
637,12	30,450
637,31	29,727
637,50	29,451
637,69	30,708
637,87	31,454
638,06	28,221
638,25	29,233
638,44	29,753
638,63	28,765
638,82	29,691
639,01	29,174
639,20	31,005
639,39	30,579
639,58	29,545
639,77	28,516
639,95	29,006
640,14	32,569
640,33	30,071
640,52	30,410
640,71	31,287
640,90	28,977
641,09	30,842
641,28	29,820
641,47	31,473
641,66	31,070
641,84	31,784
642,03	28,317
642,22	29,423
642,41	33,140
642,60	29,375
642,79	31,170
642,98	30,734
643,17	31,090
643,35	28,244
643,54	29,746
643,73	29,599
643,92	30,090
644,11	29,621
644,30	28,232
644,49	29,657
644,67	30,864
644,86	29,325
645,05	30,988
645,24	29,213
645,43	29,276
645,62	29,089
645,81	28,707
645,99	29,587
646,18	31,647
646,37	29,620
646,56	30,351
646,75	31,179
646,94	30,991
647,13	28,446
647,31	29,793
647,50	28,740
647,69	31,075
647,88	29,668
648,07	31,199
648,26	33,428
648,44	30,430
648,63	31,555
648,82	29,194
649,01	31,028
649,20	28,733
649,38	31,140
649,57	29,074
649,76	28,372
649,95	30,452
650,14	28,854
650,33	30,187
650,51	29,658
650,70	28,739
650,89	30,976
651,08	30,327
651,27	31,010
651,45	28,228
651,64	29,620
651,83	29,223
652,02	29,239
652,21	28,857
652,39	31,139
652,58	32,711
652,77	31,483
652,96	30,395
653,15	31,785
653,33	29,113
653,52	30,326
653,71	31,210
653,90	30,995
654,09	28,714
654,27	29,590
654,46	30,575
654,65	29,865
654,84	28,638
655,02	30,880
655,21	28,912
655,40	30,804
655,59	29,812
655,77	29,726
655,96	30,911
656,15	31,744
656,34	30,742
656,53	29,939
656,71	30,142
656,90	31,614
657,09	30,271
657,28	29,887
657,46	28,651
657,65	29,636
657,84	29,540
658,03	29,777
658,21	30,436
658,40	29,804
658,59	29,667
658,78	30,014
658,96	28,993
659,15	31,563
659,34	29,438
659,52	30,895
659,71	30,699
659,90	29,807
660,09	29,337
660,27	30,595
660,46	32,502
660,65	30,893
660,84	28,743
661,02	32,284
661,21	31,892
661,40	30,605
661,58	30,672
661,77	30,488
661,96	28,703
662,15	31,769
662,33	30,158
662,52	29,740
662,71	28,988
662,89	29,417
663,08	30,158
663,27	30,751
663,45	30,807
663,64	30,678
663,83	29,968
664,02	28,630
664,20	32,134
664,39	30,240
664,58	30,724
664,76	29,536
664,95	30,421
665,14	30,677
665,32	28,617
665,51	31,891
665,70	31,525
665,88	31,083
666,07	29,816
666,26	32,313
666,44	32,587
666,63	28,398
666,82	28,548
667,00	29,004
667,19	28,496
667,38	31,483
667,56	30,326
667,75	32,103
667,94	29,738
668,12	29,733
668,31	31,676
668,50	30,787
668,68	31,640
668,87	29,395
669,06	30,045
669,24	32,033
669,43	30,140
669,62	29,562
669,80	28,854
669,99	29,064
670,18	30,646
670,36	29,032
670,55	33,124
670,74	28,463
670,92	28,501
671,11	32,563
671,29	28,088
671,48	28,689
671,67	28,894
671,85	30,418
672,04	30,225
672,23	29,502
672,41	29,617
672,60	29,956
672,78	30,071
672,97	30,152
673,16	31,971
673,34	31,241
673,53	28,734
673,71	31,204
673,90	30,797
674,09	30,358
674,27	30,614
674,46	29,445
674,64	30,084
674,83	30,552
675,02	29,129
675,20	29,686
675,39	29,228
675,57	30,015
675,76	29,434
675,95	32,873
676,13	30,067
676,32	28,811
676,50	30,370
676,69	29,015
676,88	29,783
677,06	28,322
677,25	29,907
677,43	31,671
677,62	31,565
677,80	30,906
677,99	31,275
678,18	31,968
678,36	32,068
678,55	29,510
678,73	28,988
678,92	29,646
679,10	29,848
679,29	30,440
679,48	28,232
679,66	31,408
679,85	29,712
680,03	30,078
680,22	29,764
680,40	29,146
680,59	30,553
680,77	28,296
680,96	29,688
681,15	29,126
681,33	32,571
681,52	31,126
681,70	29,879
681,89	31,882
682,07	29,031
682,26	28,841
682,44	30,469
682,63	30,290
682,81	31,930
683,00	30,617
683,18	28,739
683,37	31,055
683,55	28,259
683,74	31,317
683,92	34,610
684,11	30,564
684,29	28,830
684,48	29,055
684,67	29,675
684,85	28,707
685,04	31,383
685,22	30,366
685,41	29,677
685,59	30,161
685,78	29,368
685,96	28,828
686,15	29,123
686,33	30,096
686,52	29,882
686,70	29,418
686,89	29,248
687,07	29,637
687,26	30,380
687,44	28,851
687,62	29,430
687,81	30,119
687,99	30,937
688,18	29,271
688,36	30,764
688,55	32,091
688,73	29,496
688,92	28,796
689,10	29,878
689,29	31,015
689,47	31,513
689,66	28,104
689,84	28,704
690,03	32,117
690,21	29,289
690,40	29,553
690,58	28,258
690,76	27,463
690,95	30,028
691,13	28,882
691,32	30,666
691,50	28,726
691,69	31,583
691,87	29,344
692,06	30,424
692,24	29,368
692,43	30,928
692,61	29,989
692,79	30,089
692,98	28,778
693,16	30,693
693,35	28,867
693,53	31,809
693,72	30,222
693,90	32,815
694,08	29,349
694,27	29,497
694,45	29,998
694,64	33,000
694,82	29,497
695,01	30,832
695,19	28,178
695,37	30,075
695,56	30,540
695,74	30,036
695,93	30,891
696,11	28,888
696,29	29,924
696,48	32,086
696,66	30,925
696,85	28,533
697,03	28,059
697,21	30,085
697,40	32,708
697,58	31,244
697,77	30,687
697,95	30,143
698,13	28,475
698,32	28,836
698,50	28,021
698,69	29,014
698,87	30,326
699,05	32,102
699,24	28,513
699,42	29,988
699,60	28,252
699,79	29,301
699,97	29,009
700,16	29,054
700,34	34,363
700,52	28,969
700,71	30,636
700,89	28,985
701,07	28,769
701,26	30,988
701,44	28,819
701,63	30,188
701,81	30,902
701,99	31,066
702,18	29,658
702,36	30,051
702,54	30,641
702,73	30,030
702,91	28,496
703,09	28,115
703,28	27,698
703,46	30,154
703,64	29,808
703,83	30,128
704,01	30,013
704,19	29,251
704,38	27,849
704,56	30,463
704,74	31,623
704,93	28,292
705,11	29,387
705,29	29,686
705,48	32,587
705,66	29,944
705,84	29,715
706,03	26,980
706,21	28,616
706,39	28,870
706,58	28,396
706,76	29,594
706,94	30,942
707,12	29,285
707,31	28,991
707,49	28,343
707,67	29,791
707,86	32,428
708,04	30,049
708,22	28,882
708,41	31,230
708,59	28,390
708,77	29,965
708,95	29,691
709,14	30,670
709,32	30,287
709,50	27,756
709,69	29,713
709,87	29,559
710,05	29,496
710,23	28,473
710,42	29,656
710,60	29,304
710,78	31,639
710,97	28,718
711,15	29,321
711,33	30,008
711,51	28,460
711,70	28,468
711,88	29,727
712,06	31,158
712,24	31,145
712,43	29,802
712,61	29,222
712,79	29,364
712,97	28,526
713,16	29,539
713,34	27,979
713,52	31,210
713,70	29,610
713,89	28,763
714,07	28,790
714,25	29,905
714,43	30,657
714,62	28,085
714,80	28,506
714,98	27,364
715,16	29,480
715,35	27,577
715,53	29,907
715,71	31,503
715,89	32,191
716,07	30,657
716,26	29,876
716,44	31,129
716,62	30,194
716,80	31,200
716,99	29,868
717,17	32,591
717,35	29,887
717,53	29,188
717,71	29,568
717,90	30,528
718,08	31,215
718,26	30,137
718,44	31,181
718,62	31,164
718,81	29,887
718,99	30,266
719,17	30,509
719,35	29,087
719,53	29,559
719,72	28,073
719,90	28,103
720,08	29,104
720,26	31,049
720,44	28,937
720,62	29,099
720,81	32,419
720,99	31,616
721,17	30,118
721,35	30,494
721,53	29,141
721,72	31,332
721,90	30,169
722,08	29,023
722,26	29,279
722,44	29,699
722,62	28,841
722,81	28,620
722,99	29,112
723,17	29,714
723,35	29,754
723,53	30,666
723,71	31,487
723,89	34,288
724,08	30,996
724,26	28,723
724,44	30,914
724,62	30,357
724,80	27,422
724,98	31,038
725,16	32,073
725,35	30,731
725,53	29,713
725,71	29,847
725,89	29,176
726,07	33,992
726,25	32,295
726,43	29,254
726,61	29,463
726,80	30,937
726,98	30,203
727,16	27,149
727,34	30,128
727,52	29,012
727,70	29,862
727,88	29,305
728,06	26,406
728,25	27,864
728,43	29,168
728,61	29,389
728,79	29,854
728,97	31,144
729,15	29,199
729,33	31,171
729,51	30,630
729,69	30,455
729,87	29,264
730,06	30,860
730,24	32,273
730,42	33,031
730,60	30,206
730,78	29,685
730,96	30,143
731,14	30,290
731,32	30,139
731,50	28,595
731,68	27,122
731,86	32,670
732,04	29,626
732,22	29,492
732,41	35,607
732,59	29,372
732,77	30,235
732,95	29,417
733,13	32,022
733,31	29,319
733,49	29,809
733,67	30,958
733,85	30,123
734,03	29,507
734,21	29,339
734,39	29,459
734,57	30,949
734,75	30,605
734,93	27,898
735,11	30,552
735,29	28,438
735,47	30,003
735,65	28,068
735,84	27,975
736,02	28,231
736,20	32,527
736,38	28,501
736,56	30,374
736,74	29,385
736,92	27,672
737,10	29,803
737,28	30,639
737,46	29,562
737,64	29,519
737,82	28,545
738,00	30,436
738,18	31,139
738,36	29,691
738,54	28,621
738,72	30,260
738,90	30,883
739,08	29,874
739,26	28,518
739,44	30,527
739,62	33,528
739,80	30,740
739,98	29,844
740,16	29,780
740,34	30,041
740,52	33,111
740,70	28,034
740,88	28,600
741,06	31,892
741,24	30,037
741,42	28,957
741,60	30,089
741,78	30,496
741,96	31,645
742,14	29,576
742,32	30,752
742,50	29,502
742,68	31,626
742,86	29,357
743,04	27,270
743,21	31,062
743,39	29,195
743,57	29,547
743,75	30,666
743,93	27,625
744,11	25,991
744,29	29,838
744,47	28,414
744,65	29,762
744,83	29,001
745,01	29,613
745,19	29,468
745,37	33,435
745,55	30,815
745,73	31,993
745,91	29,207
746,09	29,481
746,27	28,212
746,45	29,674
746,62	29,057
746,80	28,368
746,98	28,415
747,16	27,614
747,34	27,706
747,52	29,692
747,70	32,864
747,88	32,813
748,06	30,369
748,24	30,770
748,42	31,690
748,60	29,052
748,78	27,897
748,95	33,650
749,13	33,930
749,31	29,517
749,49	29,679
749,67	30,360
749,85	30,983
750,03	30,333
750,21	29,509
750,39	33,526
750,57	27,698
750,74	30,110
750,92	28,890
751,10	31,113
751,28	28,036
751,46	31,988
751,64	29,852
751,82	31,734
752,00	31,831
752,17	31,780
752,35	31,976
752,53	30,788
752,71	29,475
752,89	29,364
753,07	29,249
753,25	29,419
753,43	29,175
753,60	31,797
753,78	29,985
753,96	30,915
754,14	32,235
754,32	32,183
754,50	29,765
754,68	31,337
754,85	28,247
755,03	30,908
755,21	32,675
755,39	33,756
755,57	30,794
755,75	30,831
755,92	31,880
756,10	30,901
756,28	29,797
756,46	29,049
756,64	30,325
756,82	31,169
756,99	30,499
757,17	29,391
757,35	29,332
757,53	34,533
757,71	32,618
757,89	27,237
758,06	30,442
758,24	30,547
758,42	31,685
758,60	28,064
758,78	30,010
758,95	31,117
759,13	30,638
759,31	29,075
759,49	29,181
759,67	29,710
759,84	29,083
760,02	29,337
760,20	29,149
760,38	32,248
760,56	27,474
760,73	29,309
760,91	28,509
761,09	31,302
761,27	29,365
761,45	28,609
761,62	26,984
761,80	27,756
761,98	31,306
762,16	31,678
762,33	27,095
762,51	31,068
762,69	29,019
762,87	29,984
763,05	30,821
763,22	29,772
763,40	29,782
763,58	29,616
763,76	30,132
763,93	31,424
764,11	32,951
764,29	30,580
764,47	32,054
764,64	31,762
764,82	30,346
765,00	29,821
765,18	27,986
765,35	30,034
765,53	28,437
765,71	31,265
765,89	29,976
766,06	28,308
766,24	30,232
766,42	28,788
766,60	27,906
766,77	27,907
766,95	28,870
767,13	29,891
767,30	29,368
767,48	27,891
767,66	28,756
767,84	26,853
768,01	30,379
768,19	30,272
768,37	28,073
768,54	29,066
768,72	30,365
768,90	28,113
769,08	29,565
769,25	28,874
769,43	28,937
769,61	29,266
769,78	30,234
769,96	27,776
770,14	31,199
770,31	30,959
770,49	32,746
770,67	29,489
770,85	28,490
771,02	30,770
771,20	30,568
771,38	31,618
771,55	29,050
771,73	25,995
771,91	29,653
772,08	30,276
772,26	28,371
772,44	30,582
772,61	30,152
772,79	29,408
772,97	28,520
773,14	28,057
773,32	32,038
773,50	27,711
773,67	32,725
773,85	31,829
774,03	32,550
774,20	30,359
774,38	29,889
774,56	29,248
774,73	26,449
774,91	28,528
775,09	29,125
775,26	31,105
775,44	29,030
775,61	28,312
775,79	28,987
775,97	30,475
776,14	28,242
776,32	31,829
776,50	30,836
776,67	29,141
776,85	30,635
777,03	27,925
777,20	31,199
777,38	30,940
777,55	31,733
777,73	29,356
777,91	27,263
778,08	29,224
778,26	28,741
778,43	30,962
778,61	28,970
778,79	28,823
778,96	31,699
779,14	28,611
779,32	27,807
779,49	28,297
779,67	33,286
779,84	32,298
780,02	28,992
780,20	28,646
780,37	31,839
780,55	24,685
780,72	28,565
780,90	29,018
781,07	30,929
781,25	33,393
781,43	30,785
781,60	29,630
781,78	31,606
781,95	32,674
782,13	28,984
782,30	32,428
782,48	32,097
782,66	27,990
782,83	30,232
783,01	35,277
783,18	31,911
783,36	33,248
783,53	32,412
783,71	26,632
783,89	30,067
784,06	30,467
784,24	29,289
784,41	30,123
784,59	25,950
784,76	33,209
784,94	28,053
785,11	32,071
785,29	28,196
785,46	30,545
785,64	27,202
785,82	32,147
785,99	32,469
786,17	30,534
786,34	28,734
786,52	34,474
786,69	33,371
786,87	32,194
787,04	29,449
787,22	28,017
787,39	30,564
787,57	33,541
787,74	27,838
787,92	32,482
788,09	31,061
788,27	30,771
788,44	28,212
788,62	30,820
788,79	30,110
788,97	30,133
789,14	30,297
789,32	29,099
789,49	30,494
789,67	29,516
789,84	28,509
790,02	31,528
790,19	28,233
790,37	32,875
790,54	31,392
790,72	34,679
790,89	30,899
791,07	32,135
791,24	27,978
791,42	31,846
791,59	31,187
791,77	28,668
791,94	29,546
792,12	29,095
792,29	33,537
792,47	31,541
792,64	31,517
792,81	33,184
792,99	29,246
793,16	28,451
793,34	29,363
793,51	28,313
793,69	32,035
793,86	28,963
794,04	32,349
794,21	33,111
794,39	27,516
794,56	28,231
794,73	32,609
794,91	34,541
795,08	30,293
795,26	31,211
795,43	27,514
795,61	33,814
795,78	30,575
795,95	34,369
796,13	33,619
796,30	31,899
796,48	27,116
796,65	28,270
796,83	32,236
797,00	31,289
797,17	30,890
797,35	28,918
797,52	30,598
797,70	33,392
797,87	31,243
798,04	35,361
798,22	29,725
798,39	32,043
798,57	29,458
798,74	31,067
798,91	28,222
799,09	31,657
799,26	33,962
799,44	30,735
799,61	29,235
799,78	28,266
799,96	31,964
800,13	28,884
800,31	35,525
800,48	33,654
800,65	36,889
800,83	33,812
801,00	32,018
801,17	29,960
801,35	33,820
801,52	34,289
801,70	33,323
801,87	28,638
802,04	31,772
802,22	26,976
802,39	31,707
802,56	32,351
802,74	35,150
802,91	28,846
803,08	29,248
803,26	31,948
803,43	37,753
803,61	27,593
803,78	29,865
803,95	33,144
804,13	30,637
804,30	27,696
804,47	32,102
804,65	32,669
804,82	31,820
804,99	33,955
805,17	27,199
805,34	37,477
805,51	34,944
805,69	28,403
805,86	33,552
806,03	40,123
806,21	32,821
806,38	36,030
806,55	29,049
806,72	34,706
806,90	36,950
807,07	32,333
807,24	30,384
807,42	29,061
807,59	31,031
807,76	27,043
807,94	33,734
808,11	34,841
808,28	35,921
808,45	34,625
808,63	32,120
808,80	34,615
808,97	29,605
809,15	34,393
809,32	31,279
809,49	29,803
809,67	33,694
809,84	33,288
810,01	33,779
810,18	39,128
810,36	37,155
810,53	32,469
810,70	31,687
810,87	31,299
811,05	31,561
811,22	31,493
811,39	31,225
811,57	33,217
811,74	29,784
811,91	35,609
812,08	31,674
812,26	26,698
812,43	25,523
812,60	39,260
812,77	31,609
812,95	34,020
813,12	31,739
813,29	32,518
813,46	33,009
813,64	35,424
813,81	35,614
813,98	30,753
814,15	36,187
814,32	35,021
814,50	33,493
814,67	31,092
814,84	39,388
815,01	31,310
815,19	27,652
815,36	30,751
815,53	31,100
815,70	33,223
815,87	39,714
816,05	31,728
816,22	31,929
816,39	37,312
816,56	35,184
816,74	35,271
816,91	34,756
817,08	37,424
817,25	36,788
817,42	33,290
817,60	35,671
817,77	36,227
817,94	30,201
818,11	31,652
818,28	30,376
818,45	32,462
818,63	34,969
818,80	32,115
818,97	31,802
819,14	34,122
819,31	36,835
819,49	34,694
819,66	29,018
819,83	35,543
820,00	36,532
820,17	31,254
820,34	33,791
820,52	35,632
820,69	37,042
820,86	34,546
821,03	37,342
821,20	36,133
821,37	37,201
821,55	31,057
821,72	27,474
821,89	35,151
822,06	35,424
822,23	29,256
822,40	29,613
822,57	40,982
822,75	36,353
822,92	26,165
823,09	35,204
823,26	33,363
823,43	35,427
823,60	30,903
823,77	31,173
823,94	40,396
824,12	37,481
824,29	29,935
824,46	36,912
824,63	45,856
824,80	38,539
824,97	31,993
825,14	31,644
825,31	36,858
825,49	35,610
825,66	19,821
825,83	32,449
826,00	33,537
826,17	44,149
826,34	33,149
826,51	29,046
826,68	31,341
826,85	34,284
827,02	29,818
827,20	30,234
827,37	33,945
827,54	33,472
827,71	35,906
827,88	36,139
828,05	36,107
828,22	36,975
828,39	39,880
828,56	35,016
828,73	34,698
828,90	32,274
829,07	33,908
829,25	33,328
829,42	30,003
829,59	27,142
829,76	31,523
829,93	33,300
830,10	33,212
830,27	35,268
830,44	28,507
830,61	26,199
830,78	32,916
830,95	39,354
831,12	34,502
831,29	33,239
831,46	27,918
831,63	32,418
831,80	36,775
831,97	34,042
832,14	36,594
832,31	40,182
832,48	28,755
832,65	37,745
832,83	33,792
833,00	36,316
833,17	32,142
833,34	33,036
833,51	36,493
833,68	43,070
833,85	35,580
834,02	31,173
834,19	36,203
834,36	33,342
834,53	29,773
834,70	29,787
834,87	43,291
835,04	34,198
835,21	37,433
835,38	37,481
835,55	27,196
835,72	43,397
835,89	33,940
836,06	30,469
836,23	45,086
836,40	31,190
836,57	26,022
836,74	34,644
836,91	33,891
837,08	46,751
837,25	37,250
837,42	28,071
837,59	30,953
837,76	38,169
837,93	30,651
838,09	34,235
838,26	35,736
838,43	47,769
838,60	40,379
838,77	34,021
838,94	36,733
839,11	53,776
839,28	40,448
839,45	36,455
839,62	33,830
839,79	28,421
839,96	35,538
840,13	39,282
840,30	33,651
840,47	32,772
840,64	40,199
840,81	36,312
840,98	35,093
841,15	46,771
841,32	33,755
841,48	37,750
841,65	39,460
841,82	31,613
841,99	32,906
842,16	40,617
842,33	32,736
842,50	39,669
842,67	24,896
842,84	38,648
843,01	43,674
843,18	34,909
843,35	39,469
843,52	25,546
843,68	41,624
843,85	29,296
844,02	23,529
844,19	34,563
844,36	33,693
844,53	27,780
844,70	23,131
844,87	48,847
845,04	38,076
845,21	26,092
845,37	42,488
845,54	35,210
845,71	35,892
845,88	51,427
846,05	32,168
846,22	19,125
846,39	34,267
846,56	43,116
846,72	21,888
846,89	35,943
847,06	49,896
847,23	43,665
847,40	24,380
847,57	29,224
847,74	34,451
847,90	45,554
848,07	42,077
848,24	38,967
848,41	45,873
848,58	56,936
848,75	40,319
848,92	32,119
849,08	27,230
849,25	32,008
849,42	30,463
849,59	30,883
849,76	27,985
849,93	47,847
850,09	42,472
850,26	24,717
850,43	48,612
850,60	24,062
850,77	26,452
850,94	31,985
851,10	35,493
851,27	36,227
851,44	38,467
851,61	28,757
851,78	53,381
851,95	50,096
852,11	37,943
852,28	26,419
852,45	48,090
852,62	48,729
852,79	40,605
852,95	35,505
853,12	46,056
853,29	29,893
853,46	31,879
853,63	39,504
853,79	31,712
853,96	38,473
854,13	46,196
854,30	35,755
854,46	56,437
854,63	30,771
854,80	42,780
854,97	37,140
855,14	63,925
855,30	53,639
855,47	52,088
855,64	47,471
855,81	41,742
855,97	56,261
856,14	44,056
856,31	25,565
856,48	46,147
856,65	52,740
856,81	39,373
856,98	30,492
857,15	25,560
857,32	55,412
857,48	35,933
857,65	47,893
857,82	55,143
857,99	34,766
858,15	49,771
858,32	41,604
858,49	19,008
858,65	60,672
858,82	31,662
858,99	43,899
859,16	55,059
859,32	39,397
859,49	47,236
859,66	53,598
859,83	49,511
859,99	41,801
860,16	33,762
860,33	41,135
860,49	49,079
860,66	41,800
860,83	46,198
861,00	36,035
861,16	54,759
861,33	53,815
861,50	16,989
861,66	46,541
861,83	59,828
862,00	40,369
862,16	29,036
862,33	49,754
862,50	83,011
862,67	41,360
862,83	41,756
863,00	48,891
863,17	52,832
863,33	31,617
863,50	32,709
863,67	45,604
863,83	61,277
864,00	46,295
864,17	29,898
864,33	21,946
864,50	37,739
864,67	47,740
864,83	29,508
865,00	50,698
865,17	34,088
865,33	58,258
865,50	49,606
865,67	58,115
865,83	50,878
866,00	63,509
866,17	47,521
866,33	41,989
866,50	26,825
866,66	34,460
866,83	44,027
867,00	59,290
867,16	80,341
867,33	94,101
867,50	45,514
867,66	40,761
867,83	42,320
868,00	49,685
868,16	35,776
868,33	45,197
868,49	31,240
868,66	62,243
868,83	36,118
868,99	50,045
869,16	79,166
869,32	67,742
869,49	54,039
869,66	39,601
869,82	60,390
869,99	53,221
870,15	31,269
870,32	47,671
870,49	103,644
870,65	81,799
870,82	54,295
870,98	58,263
871,15	77,276
871,32	72,482
871,48	54,865
871,65	26,773
871,81	54,880
871,98	30,381
872,15	29,995
872,31	19,079
872,48	72,425
872,64	59,565
872,81	77,430
872,97	31,077
873,14	86,540
873,31	61,966
873,47	70,341
873,64	74,060
873,80	97,964
873,97	85,296
874,13	64,459
874,30	54,016
874,46	65,409
874,63	61,310
874,80	30,919
874,96	61,763
875,13	66,073
875,29	61,032
875,46	71,861
875,62	38,865
875,79	80,144
875,95	52,019
876,12	17,094
876,28	55,655
876,45	132,896
876,61	29,552
876,78	37,373
876,94	13,737
877,11	73,032
877,27	150,634
877,44	41,516
877,60	60,867
877,77	89,768
877,94	135,239
878,10	38,616
878,27	57,603
878,43	71,207
878,60	40,988
878,76	89,293
878,93	103,750
879,09	43,677
879,26	84,820
879,42	71,771
879,58	71,452
879,75	106,609
879,91	96,628
880,08	67,533
880,24	46,545
880,41	36,377
880,57	43,741
880,74	138,855
880,90	64,784
881,07	42,339
881,23	124,346
881,40	69,199
881,56	47,746
881,73	136,249
881,89	73,352
882,06	48,233
882,22	138,062
882,38	104,869
882,55	108,521
882,71	55,914
882,88	40,078
883,04	82,552
883,21	81,093
883,37	112,537
883,54	86,338
883,70	206,478
883,86	116,684
884,03	81,039
884,19	67,652
884,36	123,313
884,52	133,235
884,69	104,756
884,85	15,874
885,01	81,453
885,18	113,295
885,34	56,995
885,51	25,273
885,67	93,292
>>>>> Data<<<<< Espectral Procesado Extremo
