Fichero De Datos De SpectraSuite
++++++++++++++++++++++++++++++++++++
Fecha: Wed Apr 22 08:47:31 CEST 2009
Usuario: evoflor
Presente Oscuro Del Espectro: Sí
La Referencia de Presente Del Espectro De: Sí
Muestreados de los componentes de Número de espectros: 1
Espectrómetros: USB4F02353
Tiempo de integración (usec): 500000 (USB4F02353)
Promedio de Espectros Hechos un: 5 (USB4F02353)
El Alisar Del Furgón: 0 (USB4F02353)
Párrafo de de Corregir del la del del de Eléctrica del obscuridad: Sí (USB4F02353)
Estrobo/Lámpara Permitido: No (USB4F02353)
Correct for Detector Non-linearity: No (USB4F02353)
Párrafo de de Corregir del la del del de Externa del luz: No (USB4F02353)
Procesado del espectro de Número de pixeles en: 3648
>>>>> Comienza Data<<<<< Espectral Procesado Del EL
177,79	751,282
178,00	751,282
178,22	751,282
178,44	-7542,857
178,66	540,854
178,88	125,743
179,09	3245,244
179,31	199,027
179,53	-7173,823
179,75	292,238
179,96	-82,467
180,18	207,836
180,40	-392,751
180,62	-178,248
180,83	477,921
181,05	-1040,033
181,27	-1042,666
181,49	184,196
181,70	-384,581
181,92	416,223
182,14	201,131
182,36	-1188,094
182,58	199,804
182,79	-920,460
183,01	-12086,888
183,23	427,689
183,45	-71,526
183,66	92,164
183,88	706,048
184,10	856,556
184,32	1015,508
184,53	-221,514
184,75	464,648
184,97	-163,820
185,18	977,790
185,40	337,793
185,62	-290,002
185,84	1469,159
186,05	3783,950
186,27	-5417,222
186,49	-1413,391
186,71	216,368
186,92	396,578
187,14	1529,891
187,36	284,415
187,58	989,302
187,79	-574,291
188,01	-1033,842
188,23	70,727
188,45	130,901
188,66	-60,753
188,88	217,507
189,10	-356,708
189,31	-104,455
189,53	4,691
189,75	1235,167
189,97	174,563
190,18	540,776
190,40	917,406
190,62	152,951
190,83	491,977
191,05	-151,596
191,27	6141,301
191,49	503,135
191,70	363,644
191,92	508,711
192,14	447,519
192,35	-1348,983
192,57	-665,017
192,79	-1810,503
193,01	411,857
193,22	-420,113
193,44	-420,026
193,66	302,887
193,87	694,524
194,09	144,131
194,31	231,117
194,53	-423,149
194,74	467,511
194,96	-113,820
195,18	600,752
195,39	-1225,449
195,61	-376,778
195,83	3322,260
196,04	375,506
196,26	247,862
196,48	1988,114
196,70	693,651
196,91	203,368
197,13	-35,476
197,35	277,796
197,56	-462,118
197,78	5908,766
198,00	352,824
198,21	347,030
198,43	886,237
198,65	249,672
198,86	147,467
199,08	613,407
199,30	118,762
199,51	993,017
199,73	-2862,417
199,95	226,922
200,16	553,554
200,38	165,788
200,60	3451,047
200,81	-655,763
201,03	10518,660
201,25	643,031
201,46	-474,489
201,68	515,596
201,90	464,172
202,11	311,007
202,33	184,254
202,55	117,924
202,76	736,641
202,98	529,903
203,20	225,477
203,41	-554,046
203,63	647,437
203,85	189,378
204,06	-138,989
204,28	209,554
204,50	-235,093
204,71	470,204
204,93	134,524
205,15	171,174
205,36	-188,750
205,58	257,293
205,80	-1698,132
206,01	-6486,106
206,23	238,766
206,45	446,505
206,66	471,207
206,88	-636,552
207,10	2959,612
207,31	-42214,570
207,53	7,575
207,75	-138,220
207,96	358,847
208,18	392,145
208,39	281,640
208,61	738,071
208,83	8799,139
209,04	382,328
209,26	382,314
209,48	114,079
209,69	-146,690
209,91	971,419
210,13	9,508
210,34	163,739
210,56	296,940
210,77	2954,663
210,99	350,605
211,21	-247,384
211,42	126,096
211,64	555,607
211,86	435,540
212,07	283,344
212,29	670,579
212,50	1041,518
212,72	189,829
212,94	246,082
213,15	231,268
213,37	824,189
213,58	139,238
213,80	371,880
214,02	2698,218
214,23	375,915
214,45	279,917
214,67	63,395
214,88	-115,125
215,10	1196,219
215,31	1397,632
215,53	9,694
215,75	349,435
215,96	582,525
216,18	117,343
216,39	265,644
216,61	503,390
216,83	1054,483
217,04	286,078
217,26	16,608
217,47	544,591
217,69	340,863
217,91	83,940
218,12	910,416
218,34	87,705
218,55	219,554
218,77	41,713
218,99	161,601
219,20	170,946
219,42	523,054
219,63	107,674
219,85	252,398
220,06	-216,137
220,28	165,255
220,50	70,134
220,71	111,273
220,93	461,113
221,14	379,291
221,36	98,110
221,58	87,268
221,79	45,210
222,01	124,421
222,22	122,606
222,44	101,953
222,65	266,724
222,87	80,004
223,09	72,863
223,30	49,631
223,52	20,252
223,73	98,178
223,95	84,780
224,16	23,413
224,38	99,979
224,60	79,929
224,81	88,553
225,03	111,867
225,24	66,976
225,46	-15,092
225,67	18,505
225,89	50,027
226,10	129,012
226,32	54,887
226,54	-31,017
226,75	31,814
226,97	132,485
227,18	96,720
227,40	95,182
227,61	38,122
227,83	37,368
228,04	112,426
228,26	65,633
228,47	14,059
228,69	73,016
228,91	62,881
229,12	111,507
229,34	28,589
229,55	66,837
229,77	24,865
229,98	25,356
230,20	38,182
230,41	15,012
230,63	86,205
230,84	45,484
231,06	53,669
231,27	-2,812
231,49	31,914
231,71	8,290
231,92	6,675
232,14	0,719
232,35	37,746
232,57	-2,585
232,78	18,940
233,00	22,415
233,21	9,415
233,43	11,488
233,64	0,290
233,86	16,081
234,07	39,350
234,29	8,684
234,50	15,745
234,72	19,278
234,93	16,161
235,15	2,426
235,36	16,920
235,58	50,481
235,79	25,668
236,01	10,002
236,22	18,264
236,44	41,975
236,65	14,908
236,87	15,475
237,08	11,176
237,30	0,886
237,51	21,850
237,73	14,852
237,94	10,290
238,16	13,007
238,37	8,103
238,59	4,771
238,80	12,002
239,02	2,975
239,23	25,420
239,45	9,781
239,66	21,264
239,88	22,302
240,09	19,288
240,31	6,817
240,52	3,790
240,74	12,311
240,95	10,160
241,17	10,113
241,38	8,702
241,60	3,047
241,81	21,544
242,03	-0,150
242,24	15,324
242,46	12,458
242,67	-2,863
242,89	14,119
243,10	13,221
243,32	13,662
243,53	10,056
243,75	3,765
243,96	11,630
244,18	10,388
244,39	16,242
244,60	1,167
244,82	4,693
245,03	14,024
245,25	6,327
245,46	21,380
245,68	1,457
245,89	26,483
246,11	14,654
246,32	7,032
246,54	11,676
246,75	4,428
246,97	14,248
247,18	17,610
247,39	6,521
247,61	11,624
247,82	11,692
248,04	3,108
248,25	4,050
248,47	6,474
248,68	12,834
248,90	6,124
249,11	8,363
249,33	14,808
249,54	9,713
249,75	11,111
249,97	2,575
250,18	16,886
250,40	11,981
250,61	3,858
250,83	2,172
251,04	8,034
251,25	14,114
251,47	12,902
251,68	4,556
251,90	7,849
252,11	7,281
252,33	4,721
252,54	6,128
252,76	1,797
252,97	-2,997
253,18	8,329
253,40	10,477
253,61	7,037
253,83	7,393
254,04	10,539
254,25	2,869
254,47	1,079
254,68	10,137
254,90	5,627
255,11	1,379
255,33	10,437
255,54	4,790
255,75	4,474
255,97	6,475
256,18	5,925
256,40	5,898
256,61	7,735
256,82	3,469
257,04	10,554
257,25	4,354
257,47	7,939
257,68	9,726
257,89	7,346
258,11	4,103
258,32	11,144
258,54	4,060
258,75	14,362
258,96	7,972
259,18	4,706
259,39	3,336
259,61	8,176
259,82	3,298
260,03	1,005
260,25	8,368
260,46	5,725
260,68	3,406
260,89	2,672
261,10	7,478
261,32	5,508
261,53	0,004
261,75	9,808
261,96	2,272
262,17	17,341
262,39	10,234
262,60	2,406
262,81	4,963
263,03	11,375
263,24	8,267
263,46	4,650
263,67	6,878
263,88	9,339
264,10	4,817
264,31	6,233
264,52	6,759
264,74	7,866
264,95	6,165
265,17	10,491
265,38	8,391
265,59	10,577
265,81	8,675
266,02	0,136
266,23	0,619
266,45	10,778
266,66	9,042
266,87	7,872
267,09	4,394
267,30	10,575
267,52	10,843
267,73	6,595
267,94	0,910
268,16	7,071
268,37	2,303
268,58	6,297
268,80	-0,322
269,01	5,805
269,22	7,745
269,44	11,137
269,65	5,326
269,86	2,965
270,08	6,026
270,29	2,826
270,50	3,577
270,72	8,165
270,93	3,507
271,14	6,354
271,36	2,973
271,57	9,105
271,78	4,586
272,00	5,115
272,21	8,109
272,42	5,187
272,64	9,742
272,85	1,581
273,06	4,186
273,28	7,664
273,49	3,192
273,70	6,716
273,92	4,586
274,13	5,532
274,34	-3,165
274,56	5,998
274,77	5,060
274,98	12,015
275,20	9,499
275,41	5,170
275,62	2,715
275,84	6,254
276,05	13,704
276,26	3,886
276,47	1,795
276,69	10,641
276,90	9,429
277,11	1,689
277,33	-0,169
277,54	11,536
277,75	5,018
277,97	0,027
278,18	2,218
278,39	7,742
278,61	0,099
278,82	9,022
279,03	7,413
279,24	2,483
279,46	5,869
279,67	10,373
279,88	4,645
280,10	10,048
280,31	4,904
280,52	0,026
280,73	2,872
280,95	7,749
281,16	5,109
281,37	5,750
281,59	4,839
281,80	8,864
282,01	3,900
282,22	2,184
282,44	5,346
282,65	12,102
282,86	6,578
283,08	1,817
283,29	5,120
283,50	0,481
283,71	5,991
283,93	5,001
284,14	1,836
284,35	6,526
284,56	5,094
284,78	-0,060
284,99	6,899
285,20	10,242
285,42	4,054
285,63	4,380
285,84	2,477
286,05	4,865
286,27	2,734
286,48	7,292
286,69	3,949
286,90	1,662
287,12	4,007
287,33	4,043
287,54	2,540
287,75	8,792
287,97	3,485
288,18	3,402
288,39	4,448
288,60	5,103
288,82	3,357
289,03	3,158
289,24	6,670
289,45	7,307
289,67	5,333
289,88	3,777
290,09	9,372
290,30	5,428
290,52	3,641
290,73	1,765
290,94	3,618
291,15	4,443
291,37	5,545
291,58	2,572
291,79	4,105
292,00	5,859
292,21	4,106
292,43	5,826
292,64	0,471
292,85	5,656
293,06	6,501
293,28	4,437
293,49	3,667
293,70	8,311
293,91	-0,034
294,12	5,680
294,34	4,201
294,55	5,303
294,76	6,026
294,97	7,821
295,19	4,482
295,40	5,108
295,61	5,366
295,82	5,860
296,03	4,431
296,25	5,468
296,46	2,951
296,67	2,288
296,88	6,596
297,09	3,387
297,31	0,969
297,52	5,499
297,73	2,516
297,94	2,171
298,15	7,885
298,37	3,924
298,58	2,822
298,79	4,374
299,00	-1,041
299,21	5,827
299,43	0,769
299,64	9,391
299,85	2,620
300,06	1,223
300,27	4,013
300,49	7,127
300,70	7,100
300,91	0,894
301,12	2,849
301,33	7,916
301,54	1,478
301,76	4,946
301,97	3,984
302,18	6,218
302,39	6,801
302,60	4,874
302,82	2,611
303,03	8,783
303,24	4,999
303,45	6,620
303,66	6,595
303,87	1,563
304,09	5,936
304,30	1,695
304,51	2,001
304,72	2,673
304,93	5,482
305,14	3,587
305,36	3,787
305,57	1,487
305,78	8,127
305,99	3,964
306,20	4,793
306,41	-0,288
306,62	2,328
306,84	4,432
307,05	4,889
307,26	2,107
307,47	10,397
307,68	3,091
307,89	2,111
308,11	5,177
308,32	3,354
308,53	3,058
308,74	0,967
308,95	1,086
309,16	10,020
309,37	5,059
309,59	1,601
309,80	3,785
310,01	3,919
310,22	4,234
310,43	6,963
310,64	6,586
310,85	5,340
311,06	1,942
311,28	4,379
311,49	4,103
311,70	7,421
311,91	2,900
312,12	2,208
312,33	2,661
312,54	6,191
312,75	9,390
312,97	3,660
313,18	6,651
313,39	2,091
313,60	3,707
313,81	3,879
314,02	6,192
314,23	6,665
314,44	3,717
314,65	2,572
314,87	0,983
315,08	3,706
315,29	1,349
315,50	4,613
315,71	8,716
315,92	8,422
316,13	2,150
316,34	4,720
316,55	7,604
316,77	2,065
316,98	1,360
317,19	3,133
317,40	5,817
317,61	9,165
317,82	6,380
318,03	1,655
318,24	4,239
318,45	8,239
318,66	5,218
318,87	2,355
319,09	5,260
319,30	6,772
319,51	7,589
319,72	6,556
319,93	5,021
320,14	5,217
320,35	7,510
320,56	1,312
320,77	4,979
320,98	8,011
321,19	7,012
321,40	6,634
321,62	4,449
321,83	-0,461
322,04	5,913
322,25	6,186
322,46	10,773
322,67	5,081
322,88	7,702
323,09	2,655
323,30	9,469
323,51	9,723
323,72	4,711
323,93	1,356
324,14	2,367
324,35	0,581
324,56	2,624
324,77	4,352
324,99	5,008
325,20	3,664
325,41	4,970
325,62	5,439
325,83	-0,416
326,04	2,787
326,25	4,354
326,46	1,604
326,67	3,251
326,88	6,822
327,09	2,340
327,30	6,086
327,51	5,936
327,72	2,365
327,93	4,805
328,14	1,976
328,35	3,968
328,56	3,526
328,77	7,346
328,98	6,668
329,19	4,871
329,40	4,851
329,61	1,849
329,82	1,395
330,04	6,502
330,25	3,220
330,46	4,017
330,67	3,679
330,88	5,301
331,09	2,523
331,30	5,750
331,51	5,642
331,72	5,943
331,93	6,455
332,14	2,895
332,35	5,605
332,56	3,157
332,77	8,421
332,98	3,576
333,19	4,157
333,40	5,759
333,61	3,735
333,82	3,816
334,03	5,855
334,24	11,144
334,45	5,795
334,66	6,067
334,87	4,385
335,08	2,526
335,29	2,528
335,50	5,285
335,71	1,560
335,92	6,614
336,13	5,197
336,34	2,458
336,55	4,339
336,76	6,946
336,97	5,949
337,18	4,209
337,39	5,177
337,60	6,327
337,81	4,463
338,02	7,265
338,23	3,630
338,44	3,856
338,65	3,044
338,86	6,842
339,07	4,959
339,28	2,970
339,49	3,623
339,70	1,247
339,91	5,345
340,11	6,586
340,32	5,650
340,53	4,375
340,74	-0,076
340,95	1,365
341,16	4,697
341,37	4,088
341,58	5,791
341,79	2,074
342,00	0,197
342,21	-1,320
342,42	4,113
342,63	7,990
342,84	5,906
343,05	4,353
343,26	8,885
343,47	4,618
343,68	3,037
343,89	1,218
344,10	1,659
344,31	4,878
344,52	5,735
344,73	2,629
344,94	1,589
345,14	4,441
345,35	5,466
345,56	2,792
345,77	1,368
345,98	2,795
346,19	6,482
346,40	6,489
346,61	2,137
346,82	4,342
347,03	7,678
347,24	0,945
347,45	3,725
347,66	6,744
347,87	4,716
348,08	7,372
348,28	2,939
348,49	4,736
348,70	4,342
348,91	4,408
349,12	4,925
349,33	-1,380
349,54	6,464
349,75	5,577
349,96	5,051
350,17	6,399
350,38	3,410
350,59	3,261
350,80	2,214
351,00	2,205
351,21	10,674
351,42	2,482
351,63	3,701
351,84	2,974
352,05	7,624
352,26	4,184
352,47	7,929
352,68	8,052
352,89	6,249
353,09	2,500
353,30	2,048
353,51	0,423
353,72	9,074
353,93	7,419
354,14	2,223
354,35	4,144
354,56	7,216
354,77	3,034
354,98	1,973
355,18	6,280
355,39	10,764
355,60	3,170
355,81	6,393
356,02	3,658
356,23	2,696
356,44	6,562
356,65	2,921
356,85	8,757
357,06	9,030
357,27	5,898
357,48	0,969
357,69	8,458
357,90	7,637
358,11	-0,294
358,32	2,571
358,52	6,472
358,73	4,151
358,94	4,395
359,15	3,706
359,36	7,011
359,57	2,593
359,78	8,651
359,98	5,800
360,19	1,707
360,40	2,250
360,61	7,630
360,82	4,999
361,03	11,860
361,24	16,108
361,44	2,272
361,65	5,264
361,86	1,853
362,07	3,442
362,28	10,188
362,49	4,738
362,70	6,678
362,90	5,956
363,11	4,781
363,32	2,860
363,53	2,862
363,74	9,397
363,95	8,384
364,15	3,913
364,36	8,416
364,57	2,847
364,78	2,381
364,99	2,340
365,20	5,479
365,40	8,396
365,61	4,645
365,82	5,159
366,03	9,733
366,24	2,941
366,45	1,547
366,65	0,997
366,86	5,001
367,07	4,116
367,28	1,931
367,49	1,918
367,69	4,868
367,90	3,921
368,11	13,374
368,32	5,808
368,53	7,572
368,73	4,031
368,94	3,242
369,15	6,889
369,36	7,512
369,57	6,331
369,78	5,524
369,98	5,179
370,19	7,542
370,40	1,288
370,61	3,898
370,82	6,628
371,02	9,791
371,23	5,540
371,44	5,459
371,65	3,036
371,85	7,739
372,06	2,484
372,27	7,216
372,48	2,775
372,69	8,873
372,89	4,391
373,10	3,979
373,31	5,003
373,52	5,416
373,73	8,681
373,93	5,466
374,14	4,088
374,35	3,006
374,56	4,454
374,76	5,318
374,97	4,674
375,18	8,206
375,39	6,147
375,60	6,550
375,80	2,891
376,01	3,084
376,22	5,468
376,43	5,137
376,63	3,709
376,84	6,272
377,05	6,867
377,26	3,881
377,46	2,606
377,67	4,069
377,88	-0,221
378,09	6,212
378,29	5,701
378,50	3,557
378,71	6,093
378,92	1,469
379,12	0,365
379,33	3,905
379,54	5,253
379,75	7,376
379,95	6,226
380,16	5,402
380,37	5,830
380,58	1,928
380,78	5,618
380,99	4,473
381,20	3,827
381,41	9,519
381,61	2,883
381,82	4,825
382,03	6,506
382,24	6,402
382,44	2,080
382,65	5,947
382,86	9,572
383,06	8,563
383,27	7,295
383,48	2,848
383,69	5,960
383,89	1,483
384,10	0,894
384,31	6,324
384,51	8,158
384,72	7,506
384,93	3,499
385,14	2,464
385,34	1,077
385,55	3,604
385,76	2,468
385,96	8,644
386,17	3,018
386,38	3,366
386,59	8,928
386,79	7,715
387,00	11,706
387,21	8,590
387,41	4,237
387,62	4,139
387,83	10,714
388,03	3,239
388,24	5,639
388,45	4,905
388,66	7,602
388,86	2,371
389,07	4,021
389,28	13,936
389,48	6,180
389,69	4,275
389,90	0,793
390,10	3,906
390,31	11,622
390,52	4,740
390,72	6,753
390,93	5,901
391,14	4,421
391,34	7,581
391,55	6,169
391,76	9,936
391,96	11,431
392,17	6,482
392,38	4,450
392,58	5,960
392,79	5,336
393,00	1,792
393,20	4,750
393,41	4,214
393,62	11,134
393,82	2,600
394,03	8,830
394,24	3,891
394,44	10,989
394,65	9,779
394,86	6,185
395,06	11,607
395,27	9,594
395,48	6,992
395,68	3,767
395,89	7,288
396,10	10,254
396,30	2,020
396,51	3,816
396,72	6,005
396,92	2,998
397,13	10,474
397,34	3,140
397,54	9,241
397,75	5,719
397,95	4,197
398,16	6,437
398,37	8,013
398,57	2,570
398,78	5,354
398,99	7,539
399,19	8,636
399,40	13,520
399,60	7,783
399,81	10,027
400,02	15,737
400,22	10,481
400,43	14,380
400,64	4,937
400,84	3,870
401,05	11,136
401,25	9,813
401,46	5,364
401,67	11,647
401,87	9,318
402,08	4,914
402,29	8,858
402,49	14,908
402,70	10,603
402,90	6,330
403,11	11,319
403,32	3,309
403,52	5,517
403,73	8,267
403,93	11,992
404,14	17,475
404,35	7,614
404,55	5,155
404,76	11,766
404,96	11,475
405,17	16,140
405,38	16,714
405,58	8,947
405,79	15,746
405,99	15,047
406,20	11,825
406,40	10,449
406,61	11,371
406,82	10,424
407,02	10,983
407,23	8,837
407,43	11,862
407,64	5,590
407,85	13,253
408,05	5,757
408,26	19,415
408,46	18,861
408,67	11,725
408,87	13,217
409,08	11,322
409,29	19,896
409,49	16,841
409,70	12,140
409,90	12,503
410,11	13,641
410,31	15,671
410,52	13,409
410,72	11,771
410,93	16,779
411,14	13,125
411,34	10,953
411,55	13,163
411,75	16,205
411,96	16,216
412,16	12,684
412,37	11,631
412,57	17,796
412,78	17,047
412,99	13,794
413,19	16,400
413,40	15,679
413,60	13,844
413,81	14,277
414,01	13,837
414,22	16,081
414,42	15,078
414,63	14,922
414,83	14,781
415,04	19,203
415,24	17,425
415,45	14,307
415,65	17,315
415,86	20,028
416,07	14,905
416,27	19,524
416,48	17,866
416,68	25,555
416,89	13,700
417,09	19,331
417,30	22,873
417,50	12,699
417,71	20,737
417,91	17,992
418,12	17,526
418,32	17,142
418,53	15,973
418,73	17,957
418,94	19,050
419,14	20,641
419,35	16,903
419,55	18,463
419,76	21,711
419,96	20,654
420,17	16,619
420,37	17,348
420,58	20,581
420,78	20,654
420,99	15,341
421,19	23,886
421,40	25,701
421,60	21,549
421,81	16,501
422,01	18,976
422,22	19,637
422,42	23,775
422,63	22,086
422,83	21,941
423,04	26,863
423,24	31,789
423,45	23,011
423,65	18,708
423,86	24,700
424,06	24,794
424,27	22,160
424,47	21,411
424,67	18,062
424,88	21,617
425,08	19,755
425,29	25,209
425,49	16,090
425,70	18,095
425,90	19,588
426,11	21,668
426,31	21,817
426,52	22,845
426,72	22,493
426,93	20,479
427,13	27,580
427,33	21,096
427,54	22,833
427,74	21,499
427,95	29,475
428,15	22,821
428,36	21,935
428,56	19,750
428,77	23,040
428,97	24,131
429,18	21,298
429,38	21,964
429,58	22,880
429,79	25,539
429,99	20,573
430,20	23,804
430,40	28,189
430,61	18,751
430,81	21,745
431,01	27,730
431,22	27,509
431,42	22,246
431,63	17,576
431,83	24,268
432,04	28,097
432,24	24,790
432,44	25,133
432,65	21,712
432,85	22,258
433,06	25,104
433,26	22,148
433,47	23,884
433,67	19,881
433,87	25,538
434,08	24,800
434,28	20,273
434,49	23,731
434,69	32,049
434,89	27,254
435,10	21,936
435,30	28,488
435,51	23,304
435,71	21,775
435,91	23,689
436,12	22,182
436,32	21,598
436,53	22,313
436,73	20,877
436,93	24,714
437,14	23,974
437,34	24,606
437,55	20,083
437,75	25,945
437,95	26,268
438,16	19,971
438,36	24,852
438,57	24,965
438,77	22,879
438,97	27,991
439,18	26,734
439,38	23,166
439,58	21,392
439,79	21,800
439,99	18,719
440,20	29,204
440,40	29,977
440,60	26,830
440,81	23,036
441,01	27,581
441,21	28,577
441,42	26,337
441,62	24,275
441,83	26,179
442,03	20,957
442,23	27,498
442,44	26,523
442,64	27,525
442,84	23,016
443,05	30,399
443,25	21,882
443,45	27,460
443,66	27,372
443,86	23,596
444,06	28,244
444,27	23,284
444,47	29,955
444,67	27,888
444,88	27,112
445,08	26,616
445,28	22,974
445,49	25,799
445,69	26,168
445,90	27,293
446,10	28,588
446,30	22,725
446,51	23,604
446,71	29,249
446,91	28,036
447,12	33,010
447,32	24,674
447,52	27,615
447,72	28,327
447,93	25,144
448,13	21,215
448,33	30,410
448,54	26,554
448,74	23,171
448,94	25,242
449,15	30,359
449,35	22,747
449,55	28,763
449,76	25,371
449,96	25,991
450,16	25,891
450,37	23,116
450,57	27,109
450,77	24,213
450,98	24,711
451,18	28,371
451,38	29,123
451,58	30,106
451,79	25,677
451,99	28,514
452,19	27,461
452,40	34,958
452,60	21,211
452,80	29,653
453,00	30,115
453,21	22,298
453,41	28,000
453,61	22,984
453,82	29,207
454,02	23,738
454,22	39,501
454,42	28,578
454,63	24,829
454,83	23,868
455,03	30,827
455,24	24,446
455,44	28,469
455,64	23,706
455,84	24,428
456,05	20,508
456,25	22,660
456,45	23,389
456,65	27,033
456,86	28,980
457,06	26,472
457,26	26,526
457,47	33,188
457,67	25,231
457,87	22,411
458,07	26,182
458,28	29,836
458,48	30,353
458,68	23,498
458,88	33,114
459,09	24,725
459,29	31,090
459,49	19,580
459,69	29,361
459,90	28,343
460,10	26,638
460,30	28,705
460,50	25,775
460,71	29,100
460,91	22,204
461,11	29,345
461,31	25,947
461,52	28,488
461,72	28,396
461,92	23,588
462,12	31,819
462,32	24,131
462,53	26,046
462,73	26,087
462,93	27,895
463,13	31,489
463,34	25,834
463,54	29,649
463,74	28,147
463,94	24,578
464,14	28,873
464,35	23,806
464,55	33,069
464,75	33,942
464,95	24,231
465,16	25,016
465,36	33,778
465,56	22,664
465,76	23,529
465,96	28,967
466,17	27,469
466,37	24,029
466,57	28,433
466,77	29,587
466,97	25,881
467,18	30,139
467,38	29,979
467,58	32,226
467,78	29,770
467,98	27,818
468,19	26,153
468,39	26,969
468,59	23,469
468,79	29,880
468,99	28,338
469,19	26,532
469,40	25,369
469,60	25,036
469,80	22,708
470,00	25,553
470,20	32,244
470,41	25,788
470,61	31,078
470,81	30,328
471,01	27,457
471,21	29,856
471,41	32,608
471,62	26,927
471,82	24,747
472,02	24,217
472,22	24,794
472,42	24,911
472,62	29,887
472,83	22,298
473,03	30,254
473,23	26,851
473,43	28,751
473,63	28,514
473,83	26,208
474,03	26,854
474,24	27,551
474,44	25,638
474,64	25,445
474,84	24,865
475,04	21,788
475,24	29,145
475,45	26,950
475,65	26,143
475,85	26,532
476,05	20,414
476,25	25,421
476,45	27,824
476,65	30,475
476,85	24,092
477,06	27,076
477,26	25,063
477,46	24,606
477,66	26,660
477,86	26,120
478,06	29,327
478,26	36,145
478,46	25,538
478,67	28,732
478,87	24,313
479,07	26,854
479,27	26,316
479,47	23,456
479,67	20,946
479,87	24,137
480,07	29,082
480,28	26,683
480,48	23,680
480,68	28,982
480,88	31,698
481,08	28,748
481,28	26,261
481,48	25,165
481,68	25,513
481,88	21,868
482,08	23,067
482,29	27,254
482,49	23,587
482,69	25,751
482,89	24,697
483,09	31,270
483,29	22,469
483,49	24,764
483,69	25,337
483,89	25,164
484,09	22,879
484,29	24,712
484,50	25,744
484,70	26,469
484,90	23,972
485,10	28,090
485,30	24,249
485,50	29,347
485,70	25,348
485,90	22,544
486,10	20,952
486,30	22,583
486,50	25,130
486,70	22,545
486,90	25,014
487,10	26,698
487,30	27,013
487,51	25,259
487,71	21,886
487,91	26,907
488,11	28,337
488,31	23,609
488,51	23,648
488,71	23,521
488,91	25,429
489,11	24,260
489,31	23,843
489,51	25,477
489,71	24,744
489,91	23,277
490,11	26,849
490,31	26,205
490,51	27,399
490,71	29,059
490,91	22,761
491,11	25,472
491,31	28,454
491,51	24,462
491,72	23,438
491,92	26,413
492,12	28,817
492,32	25,966
492,52	27,774
492,72	23,555
492,92	25,510
493,12	26,397
493,32	24,320
493,52	24,879
493,72	24,157
493,92	26,915
494,12	24,857
494,32	28,084
494,52	23,572
494,72	25,590
494,92	24,697
495,12	26,646
495,32	30,862
495,52	26,429
495,72	25,108
495,92	27,749
496,12	28,768
496,32	28,276
496,52	25,196
496,72	28,603
496,92	26,539
497,12	27,218
497,32	27,115
497,52	26,755
497,72	26,798
497,92	25,890
498,12	26,050
498,32	25,146
498,52	24,276
498,72	24,896
498,92	25,059
499,12	26,368
499,32	24,074
499,52	29,002
499,72	25,625
499,92	27,689
500,12	26,656
500,32	25,962
500,52	27,481
500,72	30,238
500,91	30,537
501,11	27,271
501,31	24,727
501,51	27,294
501,71	29,087
501,91	29,259
502,11	23,703
502,31	27,730
502,51	27,519
502,71	27,847
502,91	23,613
503,11	28,812
503,31	26,163
503,51	22,356
503,71	25,168
503,91	28,006
504,11	24,003
504,31	26,698
504,51	24,179
504,71	31,844
504,91	25,251
505,10	28,604
505,30	26,724
505,50	27,162
505,70	26,860
505,90	25,622
506,10	23,316
506,30	26,524
506,50	25,601
506,70	29,130
506,90	25,989
507,10	25,536
507,30	22,829
507,50	26,314
507,70	30,095
507,89	28,636
508,09	27,598
508,29	25,151
508,49	24,187
508,69	28,110
508,89	27,261
509,09	26,055
509,29	26,366
509,49	28,309
509,69	29,296
509,89	29,323
510,09	27,315
510,28	26,041
510,48	25,718
510,68	26,016
510,88	27,082
511,08	28,039
511,28	26,050
511,48	27,051
511,68	22,517
511,88	31,787
512,07	26,883
512,27	25,164
512,47	25,872
512,67	24,558
512,87	24,218
513,07	26,712
513,27	25,044
513,47	25,968
513,67	21,921
513,86	26,570
514,06	27,348
514,26	27,799
514,46	28,883
514,66	25,201
514,86	26,295
515,06	30,439
515,26	30,103
515,45	26,787
515,65	24,759
515,85	27,011
516,05	25,479
516,25	24,887
516,45	27,148
516,65	24,362
516,84	25,845
517,04	28,461
517,24	24,254
517,44	26,467
517,64	29,145
517,84	30,669
518,04	26,023
518,23	28,218
518,43	30,551
518,63	26,833
518,83	23,354
519,03	27,559
519,23	26,817
519,42	28,158
519,62	27,918
519,82	24,894
520,02	27,090
520,22	29,160
520,42	24,549
520,61	29,783
520,81	27,741
521,01	29,714
521,21	25,260
521,41	26,013
521,61	30,384
521,80	26,705
522,00	23,953
522,20	29,211
522,40	27,717
522,60	26,104
522,79	25,730
522,99	29,763
523,19	22,862
523,39	25,584
523,59	26,428
523,78	27,702
523,98	25,073
524,18	28,429
524,38	24,122
524,58	25,100
524,77	29,004
524,97	28,346
525,17	26,493
525,37	24,393
525,57	30,398
525,76	27,773
525,96	29,962
526,16	25,945
526,36	25,169
526,56	26,421
526,75	27,544
526,95	26,909
527,15	26,827
527,35	28,536
527,55	23,697
527,74	25,089
527,94	25,427
528,14	24,833
528,34	27,208
528,53	24,874
528,73	30,540
528,93	28,041
529,13	25,573
529,32	26,474
529,52	28,384
529,72	26,735
529,92	26,306
530,12	24,730
530,31	26,306
530,51	28,225
530,71	25,889
530,91	32,295
531,10	21,576
531,30	27,587
531,50	24,810
531,70	27,314
531,89	28,810
532,09	23,656
532,29	25,522
532,49	26,693
532,68	27,600
532,88	24,216
533,08	26,228
533,28	26,800
533,47	27,615
533,67	28,874
533,87	26,540
534,06	34,700
534,26	25,136
534,46	25,663
534,66	28,159
534,85	26,205
535,05	23,366
535,25	24,797
535,45	23,589
535,64	29,381
535,84	26,811
536,04	23,431
536,23	27,859
536,43	29,043
536,63	25,455
536,83	28,413
537,02	24,973
537,22	23,739
537,42	27,241
537,61	27,256
537,81	26,135
538,01	25,256
538,20	25,211
538,40	24,225
538,60	24,127
538,80	23,697
538,99	26,645
539,19	25,065
539,39	23,909
539,58	25,551
539,78	24,231
539,98	22,696
540,17	21,875
540,37	26,334
540,57	22,257
540,76	22,336
540,96	18,811
541,16	22,816
541,36	20,789
541,55	18,985
541,75	19,661
541,95	21,224
542,14	18,484
542,34	18,290
542,54	16,707
542,73	22,269
542,93	18,442
543,13	19,650
543,32	17,642
543,52	21,809
543,72	17,791
543,91	20,855
544,11	20,481
544,31	14,486
544,50	18,035
544,70	20,349
544,89	19,624
545,09	20,088
545,29	20,751
545,48	21,921
545,68	18,418
545,88	20,663
546,07	17,594
546,27	21,423
546,47	21,764
546,66	22,734
546,86	20,556
547,06	21,810
547,25	20,213
547,45	22,222
547,64	23,273
547,84	24,139
548,04	24,345
548,23	29,247
548,43	25,442
548,63	25,878
548,82	25,795
549,02	25,502
549,21	23,360
549,41	24,812
549,61	24,803
549,80	22,834
550,00	26,041
550,20	23,503
550,39	25,311
550,59	25,178
550,78	26,658
550,98	23,890
551,18	26,089
551,37	26,068
551,57	24,818
551,76	27,035
551,96	24,401
552,16	25,286
552,35	27,047
552,55	23,321
552,74	25,655
552,94	26,762
553,14	23,521
553,33	25,748
553,53	26,187
553,72	24,326
553,92	27,889
554,12	23,971
554,31	27,179
554,51	24,032
554,70	22,751
554,90	26,010
555,09	29,383
555,29	24,163
555,49	26,568
555,68	27,890
555,88	25,013
556,07	23,979
556,27	28,459
556,46	25,198
556,66	24,796
556,86	31,142
557,05	25,876
557,25	25,869
557,44	24,793
557,64	24,767
557,83	25,822
558,03	24,900
558,22	24,741
558,42	26,272
558,62	26,571
558,81	29,711
559,01	26,666
559,20	27,922
559,40	25,210
559,59	24,628
559,79	24,310
559,98	26,010
560,18	25,863
560,37	26,989
560,57	27,138
560,76	24,637
560,96	23,405
561,16	26,108
561,35	23,888
561,55	27,217
561,74	26,534
561,94	26,225
562,13	27,945
562,33	27,600
562,52	26,526
562,72	22,735
562,91	24,111
563,11	25,026
563,30	27,586
563,50	26,589
563,69	24,277
563,89	24,415
564,08	26,995
564,28	24,182
564,47	25,885
564,67	25,800
564,86	24,754
565,06	24,722
565,25	24,041
565,45	24,048
565,64	27,414
565,84	24,178
566,03	23,325
566,23	25,005
566,42	26,391
566,62	24,822
566,81	25,414
567,01	24,441
567,20	25,966
567,40	24,895
567,59	24,776
567,79	28,894
567,98	29,391
568,18	25,014
568,37	27,464
568,57	26,738
568,76	26,033
568,96	28,114
569,15	25,435
569,35	25,670
569,54	28,338
569,73	27,690
569,93	25,036
570,12	24,551
570,32	27,676
570,51	26,884
570,71	26,282
570,90	26,893
571,10	25,505
571,29	25,835
571,49	24,587
571,68	27,216
571,87	27,226
572,07	27,747
572,26	21,990
572,46	26,114
572,65	25,228
572,85	24,820
573,04	26,199
573,24	24,065
573,43	28,553
573,62	26,555
573,82	27,116
574,01	26,979
574,21	23,015
574,40	25,254
574,60	24,827
574,79	28,617
574,98	25,656
575,18	26,646
575,37	23,826
575,57	25,677
575,76	27,285
575,96	26,482
576,15	25,466
576,34	24,502
576,54	25,016
576,73	26,749
576,93	25,745
577,12	26,453
577,31	26,031
577,51	24,480
577,70	25,602
577,90	25,874
578,09	25,995
578,28	23,724
578,48	24,837
578,67	26,004
578,87	25,466
579,06	24,367
579,25	26,566
579,45	26,812
579,64	24,260
579,84	23,775
580,03	25,464
580,22	27,460
580,42	24,374
580,61	25,607
580,81	26,252
581,00	25,105
581,19	26,734
581,39	23,677
581,58	24,961
581,77	23,692
581,97	27,337
582,16	24,331
582,35	23,996
582,55	25,518
582,74	27,081
582,94	26,375
583,13	25,360
583,32	24,202
583,52	26,612
583,71	26,079
583,90	25,204
584,10	26,864
584,29	27,145
584,48	23,939
584,68	23,551
584,87	28,639
585,06	24,507
585,26	24,425
585,45	24,984
585,65	26,522
585,84	25,338
586,03	24,735
586,23	24,675
586,42	24,347
586,61	28,460
586,81	25,782
587,00	23,546
587,19	25,475
587,39	26,200
587,58	25,213
587,77	24,559
587,97	23,449
588,16	24,394
588,35	23,421
588,54	24,150
588,74	25,297
588,93	27,702
589,12	25,924
589,32	24,012
589,51	24,249
589,70	24,773
589,90	22,629
590,09	24,439
590,28	27,426
590,48	23,084
590,67	25,668
590,86	25,479
591,06	24,641
591,25	26,928
591,44	24,861
591,63	25,689
591,83	24,004
592,02	25,335
592,21	24,268
592,41	25,174
592,60	27,846
592,79	24,920
592,98	26,692
593,18	24,069
593,37	24,139
593,56	26,759
593,76	25,748
593,95	25,149
594,14	24,855
594,33	26,915
594,53	25,441
594,72	22,859
594,91	26,240
595,10	24,833
595,30	24,029
595,49	24,226
595,68	27,321
595,88	28,430
596,07	24,914
596,26	27,074
596,45	25,569
596,65	24,462
596,84	24,769
597,03	25,532
597,22	23,885
597,42	27,319
597,61	24,633
597,80	26,674
597,99	24,759
598,19	26,394
598,38	25,664
598,57	25,092
598,76	26,271
598,95	25,811
599,15	26,677
599,34	25,588
599,53	24,076
599,72	24,025
599,92	28,296
600,11	26,530
600,30	25,171
600,49	27,851
600,69	25,604
600,88	26,582
601,07	23,789
601,26	23,320
601,45	24,547
601,65	24,132
601,84	26,492
602,03	25,414
602,22	26,074
602,42	27,111
602,61	23,960
602,80	26,190
602,99	25,297
603,18	24,657
603,38	26,985
603,57	25,643
603,76	25,407
603,95	23,643
604,14	26,359
604,34	24,364
604,53	24,407
604,72	25,746
604,91	25,532
605,10	26,057
605,29	27,428
605,49	23,742
605,68	25,857
605,87	28,332
606,06	25,546
606,25	23,429
606,45	25,822
606,64	24,870
606,83	27,103
607,02	24,525
607,21	25,975
607,40	25,224
607,60	24,096
607,79	23,983
607,98	24,459
608,17	23,678
608,36	23,855
608,55	24,546
608,75	24,622
608,94	24,021
609,13	21,449
609,32	20,593
609,51	22,640
609,70	23,710
609,89	20,803
610,09	19,683
610,28	21,343
610,47	20,653
610,66	21,810
610,85	18,621
611,04	22,542
611,23	20,130
611,43	18,756
611,62	20,931
611,81	19,590
612,00	20,903
612,19	20,405
612,38	21,625
612,57	21,837
612,77	23,000
612,96	22,115
613,15	22,482
613,34	23,416
613,53	22,176
613,72	22,225
613,91	21,437
614,10	23,121
614,29	24,911
614,49	22,299
614,68	22,373
614,87	23,106
615,06	25,255
615,25	24,506
615,44	23,822
615,63	24,684
615,82	22,211
616,01	24,604
616,21	23,319
616,40	24,646
616,59	24,861
616,78	24,641
616,97	23,906
617,16	23,942
617,35	25,032
617,54	23,214
617,73	25,914
617,92	24,394
618,11	24,268
618,31	24,098
618,50	25,281
618,69	23,530
618,88	24,624
619,07	21,117
619,26	22,307
619,45	22,891
619,64	20,917
619,83	21,852
620,02	24,221
620,21	25,774
620,40	24,327
620,59	24,938
620,78	23,591
620,97	23,630
621,17	25,670
621,36	23,086
621,55	21,863
621,74	24,742
621,93	24,203
622,12	23,880
622,31	22,127
622,50	22,704
622,69	25,406
622,88	24,355
623,07	25,267
623,26	24,941
623,45	26,313
623,64	22,789
623,83	23,044
624,02	25,428
624,21	24,485
624,40	23,316
624,59	21,230
624,78	23,637
624,97	25,864
625,16	22,393
625,35	21,881
625,54	22,053
625,73	23,623
625,92	24,740
626,12	25,692
626,31	23,538
626,50	26,012
626,69	24,156
626,88	24,038
627,07	23,975
627,26	23,341
627,45	25,381
627,64	22,060
627,83	23,904
628,02	21,932
628,21	23,405
628,40	23,467
628,59	26,063
628,78	22,140
628,97	24,156
629,16	23,690
629,35	23,403
629,54	24,653
629,73	24,272
629,92	21,746
630,10	25,043
630,29	25,045
630,48	23,681
630,67	22,718
630,86	25,909
631,05	22,708
631,24	25,710
631,43	22,543
631,62	22,561
631,81	22,364
632,00	23,931
632,19	20,601
632,38	23,873
632,57	24,900
632,76	21,320
632,95	24,709
633,14	26,004
633,33	25,824
633,52	23,585
633,71	24,670
633,90	22,299
634,09	23,110
634,28	24,677
634,47	23,863
634,66	23,200
634,85	23,606
635,04	25,771
635,22	23,000
635,41	23,017
635,60	25,001
635,79	26,279
635,98	22,124
636,17	23,739
636,36	21,458
636,55	22,315
636,74	23,124
636,93	24,112
637,12	23,044
637,31	22,031
637,50	23,214
637,69	23,993
637,87	25,100
638,06	22,643
638,25	21,523
638,44	22,377
638,63	21,602
638,82	22,516
639,01	21,872
639,20	23,723
639,39	24,169
639,58	23,702
639,77	23,691
639,95	22,445
640,14	24,961
640,33	24,074
640,52	22,785
640,71	24,514
640,90	22,498
641,09	24,380
641,28	22,309
641,47	24,815
641,66	24,648
641,84	25,514
642,03	21,599
642,22	23,850
642,41	26,742
642,60	23,199
642,79	22,633
642,98	24,630
643,17	24,533
643,35	21,379
643,54	22,462
643,73	23,597
643,92	23,925
644,11	23,488
644,30	22,909
644,49	23,889
644,67	23,569
644,86	23,182
645,05	23,400
645,24	23,551
645,43	22,124
645,62	23,520
645,81	20,660
645,99	23,697
646,18	25,460
646,37	24,175
646,56	22,561
646,75	24,670
646,94	24,083
647,13	21,955
647,31	22,874
647,50	23,056
647,69	25,384
647,88	23,364
648,07	24,883
648,26	27,333
648,44	22,529
648,63	24,284
648,82	22,524
649,01	25,301
649,20	21,241
649,38	24,108
649,57	23,487
649,76	22,447
649,95	25,225
650,14	23,044
650,33	23,685
650,51	23,530
650,70	22,979
650,89	23,717
651,08	23,415
651,27	24,742
651,45	22,700
651,64	23,190
651,83	22,565
652,02	21,663
652,21	22,571
652,39	25,364
652,58	25,040
652,77	25,583
652,96	24,295
653,15	25,778
653,33	23,727
653,52	24,376
653,71	25,500
653,90	24,773
654,09	23,941
654,27	23,071
654,46	24,652
654,65	24,914
654,84	24,101
655,02	25,575
655,21	24,107
655,40	26,181
655,59	24,064
655,77	25,582
655,96	24,700
656,15	26,580
656,34	25,255
656,53	25,150
656,71	25,698
656,90	25,218
657,09	24,898
657,28	25,438
657,46	24,666
657,65	23,158
657,84	24,044
658,03	23,380
658,21	25,784
658,40	23,565
658,59	23,079
658,78	23,229
658,96	23,190
659,15	24,437
659,34	23,644
659,52	23,628
659,71	23,445
659,90	23,656
660,09	23,057
660,27	23,263
660,46	25,807
660,65	23,852
660,84	22,131
661,02	24,016
661,21	24,058
661,40	25,201
661,58	23,440
661,77	24,348
661,96	21,291
662,15	24,110
662,33	23,298
662,52	22,223
662,71	22,355
662,89	22,313
663,08	23,258
663,27	25,358
663,45	23,072
663,64	24,604
663,83	21,557
664,02	20,958
664,20	23,703
664,39	22,989
664,58	23,513
664,76	23,038
664,95	23,867
665,14	23,667
665,32	22,653
665,51	24,308
665,70	24,126
665,88	25,906
666,07	22,334
666,26	25,786
666,44	26,017
666,63	21,222
666,82	22,689
667,00	23,963
667,19	22,673
667,38	23,796
667,56	23,730
667,75	24,629
667,94	22,586
668,12	22,309
668,31	24,477
668,50	23,165
668,68	24,648
668,87	23,673
669,06	23,286
669,24	25,063
669,43	22,893
669,62	24,006
669,80	21,783
669,99	22,735
670,18	24,427
670,36	22,212
670,55	25,447
670,74	21,664
670,92	21,185
671,11	24,971
671,29	20,279
671,48	23,452
671,67	23,495
671,85	23,147
672,04	23,684
672,23	22,715
672,41	22,611
672,60	24,433
672,78	23,262
672,97	24,171
673,16	24,008
673,34	24,573
673,53	22,466
673,71	23,789
673,90	24,760
674,09	23,870
674,27	23,872
674,46	23,138
674,64	23,017
674,83	22,546
675,02	21,051
675,20	21,866
675,39	22,634
675,57	22,026
675,76	22,259
675,95	26,483
676,13	22,940
676,32	23,930
676,50	23,884
676,69	21,073
676,88	22,955
677,06	20,785
677,25	23,472
677,43	24,960
677,62	23,956
677,80	24,179
677,99	23,508
678,18	24,055
678,36	24,346
678,55	21,432
678,73	21,181
678,92	23,407
679,10	23,446
679,29	23,550
679,48	21,082
679,66	23,663
679,85	24,005
680,03	23,353
680,22	22,255
680,40	22,366
680,59	23,388
680,77	21,494
680,96	23,677
681,15	23,635
681,33	24,823
681,52	22,952
681,70	22,492
681,89	25,807
682,07	22,869
682,26	22,450
682,44	24,741
682,63	23,568
682,81	24,567
683,00	23,613
683,18	21,349
683,37	22,390
683,55	23,205
683,74	24,929
683,92	27,869
684,11	22,997
684,29	23,829
684,48	22,885
684,67	22,518
684,85	23,493
685,04	24,352
685,22	23,564
685,41	23,534
685,59	23,188
685,78	22,399
685,96	21,959
686,15	22,324
686,33	22,578
686,52	22,878
686,70	22,521
686,89	23,869
687,07	22,400
687,26	23,339
687,44	22,947
687,62	22,700
687,81	23,316
687,99	24,099
688,18	23,245
688,36	24,308
688,55	25,326
688,73	23,046
688,92	21,213
689,10	23,577
689,29	23,924
689,47	24,182
689,66	22,976
689,84	23,009
690,03	24,419
690,21	22,767
690,40	21,227
690,58	21,371
690,76	21,315
690,95	23,104
691,13	21,590
691,32	23,223
691,50	22,680
691,69	23,938
691,87	22,851
692,06	23,228
692,24	22,659
692,43	24,328
692,61	23,775
692,79	21,452
692,98	22,423
693,16	24,970
693,35	20,855
693,53	24,017
693,72	23,122
693,90	25,202
694,08	21,338
694,27	22,522
694,45	24,092
694,64	26,244
694,82	21,968
695,01	23,805
695,19	21,826
695,37	23,981
695,56	23,062
695,74	23,761
695,93	23,983
696,11	22,443
696,29	23,388
696,48	23,875
696,66	24,453
696,85	21,277
697,03	21,604
697,21	24,114
697,40	24,684
697,58	23,673
697,77	24,510
697,95	22,841
698,13	22,165
698,32	22,187
698,50	21,535
698,69	22,741
698,87	24,407
699,05	24,525
699,24	21,749
699,42	22,539
699,60	19,977
699,79	22,240
699,97	20,947
700,16	22,022
700,34	26,251
700,52	22,774
700,71	22,591
700,89	21,573
701,07	20,090
701,26	23,384
701,44	21,683
701,63	22,755
701,81	23,239
701,99	22,156
702,18	21,846
702,36	23,131
702,54	24,503
702,73	23,671
702,91	20,533
703,09	21,434
703,28	21,065
703,46	23,985
703,64	24,008
703,83	22,993
704,01	23,200
704,19	22,773
704,38	20,909
704,56	21,939
704,74	23,513
704,93	21,269
705,11	22,384
705,29	22,392
705,48	24,790
705,66	22,319
705,84	21,745
706,03	19,418
706,21	20,851
706,39	22,368
706,58	21,299
706,76	23,804
706,94	23,216
707,12	21,697
707,31	21,733
707,49	21,833
707,67	21,367
707,86	25,181
708,04	23,158
708,22	22,057
708,41	24,337
708,59	21,664
708,77	22,718
708,95	23,344
709,14	24,729
709,32	23,421
709,50	20,801
709,69	23,509
709,87	22,333
710,05	21,812
710,23	20,899
710,42	21,014
710,60	21,980
710,78	24,220
710,97	22,956
711,15	23,785
711,33	21,946
711,51	23,542
711,70	21,532
711,88	22,097
712,06	23,285
712,24	24,012
712,43	23,558
712,61	21,133
712,79	21,970
712,97	20,450
713,16	22,853
713,34	20,382
713,52	24,824
713,70	22,988
713,89	21,648
714,07	21,354
714,25	23,135
714,43	23,614
714,62	21,376
714,80	21,360
714,98	20,442
715,16	21,640
715,35	20,403
715,53	22,197
715,71	25,092
715,89	26,582
716,07	23,883
716,26	21,200
716,44	24,206
716,62	23,036
716,80	22,908
716,99	21,710
717,17	25,125
717,35	21,843
717,53	19,881
717,71	21,413
717,90	23,606
718,08	23,546
718,26	23,605
718,44	24,187
718,62	23,483
718,81	22,033
718,99	21,493
719,17	21,986
719,35	22,865
719,53	21,788
719,72	19,441
719,90	20,855
720,08	21,888
720,26	24,607
720,44	21,369
720,62	22,074
720,81	24,407
720,99	24,245
721,17	21,968
721,35	23,792
721,53	20,664
721,72	25,561
721,90	22,400
722,08	21,678
722,26	24,550
722,44	23,849
722,62	20,132
722,81	20,592
722,99	22,843
723,17	23,011
723,35	24,373
723,53	23,867
723,71	23,257
723,89	27,518
724,08	24,040
724,26	21,936
724,44	24,250
724,62	24,459
724,80	20,219
724,98	22,426
725,16	24,995
725,35	23,323
725,53	22,986
725,71	22,157
725,89	22,532
726,07	25,866
726,25	25,853
726,43	20,210
726,61	23,564
726,80	24,328
726,98	22,274
727,16	20,718
727,34	23,142
727,52	20,976
727,70	22,399
727,88	22,645
728,06	20,674
728,25	21,440
728,43	20,780
728,61	23,413
728,79	23,152
728,97	24,217
729,15	22,334
729,33	25,104
729,51	25,021
729,69	23,647
729,87	23,054
730,06	23,004
730,24	23,979
730,42	25,238
730,60	22,674
730,78	23,725
730,96	23,967
731,14	23,805
731,32	22,256
731,50	21,334
731,68	20,181
731,86	26,650
732,04	22,785
732,22	23,226
732,41	29,893
732,59	23,429
732,77	23,753
732,95	23,409
733,13	24,654
733,31	24,090
733,49	21,374
733,67	23,672
733,85	24,783
734,03	21,582
734,21	22,834
734,39	24,000
734,57	23,211
734,75	23,839
734,93	20,848
735,11	24,235
735,29	20,269
735,47	24,298
735,65	21,876
735,84	22,982
736,02	23,003
736,20	26,812
736,38	21,228
736,56	23,512
736,74	20,874
736,92	21,329
737,10	22,993
737,28	24,298
737,46	20,686
737,64	22,609
737,82	22,462
738,00	24,185
738,18	22,991
738,36	25,442
738,54	22,686
738,72	23,624
738,90	22,350
739,08	22,909
739,26	21,768
739,44	23,441
739,62	25,755
739,80	23,984
739,98	23,311
740,16	23,411
740,34	22,298
740,52	25,943
740,70	21,756
740,88	22,547
741,06	23,756
741,24	24,084
741,42	21,862
741,60	22,551
741,78	24,359
741,96	24,103
742,14	23,946
742,32	22,666
742,50	20,783
742,68	23,907
742,86	23,974
743,04	21,232
743,21	24,652
743,39	23,369
743,57	23,218
743,75	23,955
743,93	20,922
744,11	19,135
744,29	22,473
744,47	22,303
744,65	25,041
744,83	22,664
745,01	20,363
745,19	21,669
745,37	28,500
745,55	24,051
745,73	24,499
745,91	20,674
746,09	22,378
746,27	21,098
746,45	21,566
746,62	22,703
746,80	22,180
746,98	21,687
747,16	21,002
747,34	22,480
747,52	21,828
747,70	25,136
747,88	25,224
748,06	23,591
748,24	22,304
748,42	25,201
748,60	22,492
748,78	20,239
748,95	26,624
749,13	27,733
749,31	20,900
749,49	22,528
749,67	23,191
749,85	24,688
750,03	22,477
750,21	22,760
750,39	23,125
750,57	20,243
750,74	23,928
750,92	23,005
751,10	24,566
751,28	19,919
751,46	23,126
751,64	22,548
751,82	22,617
752,00	24,286
752,17	24,311
752,35	24,834
752,53	23,900
752,71	22,680
752,89	22,699
753,07	21,284
753,25	21,999
753,43	21,025
753,60	24,538
753,78	24,502
753,96	24,805
754,14	24,127
754,32	25,620
754,50	22,692
754,68	25,093
754,85	21,905
755,03	23,535
755,21	26,437
755,39	26,306
755,57	23,369
755,75	24,525
755,92	22,374
756,10	23,281
756,28	23,428
756,46	21,432
756,64	23,984
756,82	23,526
756,99	21,795
757,17	21,547
757,35	22,247
757,53	26,967
757,71	27,150
757,89	22,162
758,06	23,967
758,24	24,970
758,42	23,774
758,60	20,594
758,78	23,130
758,95	24,708
759,13	23,724
759,31	23,533
759,49	22,217
759,67	23,400
759,84	21,738
760,02	23,341
760,20	20,328
760,38	24,826
760,56	20,637
760,73	22,431
760,91	22,374
761,09	25,792
761,27	23,181
761,45	22,668
761,62	21,044
761,80	21,292
761,98	23,371
762,16	24,595
762,33	22,179
762,51	23,392
762,69	21,853
762,87	22,069
763,05	23,979
763,22	22,915
763,40	23,482
763,58	23,724
763,76	21,196
763,93	24,971
764,11	26,127
764,29	23,059
764,47	24,596
764,64	25,269
764,82	25,614
765,00	23,279
765,18	20,710
765,35	22,423
765,53	22,075
765,71	25,570
765,89	23,535
766,06	21,019
766,24	23,544
766,42	22,750
766,60	21,637
766,77	21,744
766,95	22,593
767,13	23,438
767,30	22,869
767,48	20,733
767,66	22,135
767,84	21,163
768,01	23,221
768,19	23,012
768,37	22,481
768,54	22,154
768,72	23,963
768,90	22,182
769,08	23,904
769,25	23,026
769,43	22,540
769,61	20,209
769,78	24,116
769,96	20,967
770,14	24,578
770,31	25,933
770,49	26,603
770,67	22,776
770,85	22,730
771,02	23,303
771,20	22,704
771,38	23,202
771,55	22,433
771,73	20,348
771,91	24,912
772,08	23,599
772,26	22,357
772,44	23,383
772,61	23,649
772,79	21,813
772,97	20,632
773,14	20,184
773,32	25,046
773,50	21,690
773,67	24,704
773,85	22,890
774,03	24,129
774,20	22,504
774,38	23,217
774,56	22,664
774,73	20,416
774,91	21,690
775,09	20,147
775,26	22,782
775,44	23,906
775,61	22,591
775,79	22,679
775,97	25,149
776,14	21,963
776,32	23,439
776,50	23,381
776,67	24,488
776,85	25,205
777,03	19,915
777,20	23,453
777,38	25,198
777,55	24,968
777,73	22,402
777,91	20,621
778,08	23,388
778,26	22,345
778,43	23,544
778,61	22,035
778,79	21,198
778,96	23,108
779,14	23,966
779,32	21,850
779,49	21,088
779,67	26,726
779,84	24,624
780,02	23,029
780,20	22,934
780,37	25,615
780,55	17,618
780,72	23,222
780,90	21,299
781,07	23,145
781,25	25,504
781,43	22,768
781,60	22,489
781,78	23,886
781,95	25,154
782,13	22,545
782,30	23,542
782,48	24,604
782,66	22,330
782,83	21,893
783,01	31,191
783,18	24,832
783,36	25,388
783,53	24,653
783,71	19,519
783,89	22,706
784,06	23,508
784,24	23,325
784,41	22,247
784,59	20,260
784,76	26,656
784,94	21,706
785,11	24,830
785,29	21,332
785,46	24,083
785,64	21,011
785,82	25,292
785,99	26,417
786,17	27,261
786,34	20,877
786,52	25,672
786,69	23,985
786,87	23,484
787,04	21,107
787,22	21,826
787,39	22,466
787,57	27,036
787,74	20,751
787,92	27,921
788,09	26,234
788,27	23,060
788,44	23,388
788,62	25,583
788,79	20,851
788,97	24,290
789,14	24,356
789,32	23,807
789,49	22,560
789,67	24,839
789,84	23,568
790,02	26,262
790,19	19,381
790,37	25,908
790,54	23,430
790,72	28,862
790,89	25,082
791,07	27,714
791,24	21,045
791,42	26,513
791,59	28,339
791,77	23,040
791,94	25,139
792,12	23,467
792,29	25,399
792,47	25,461
792,64	24,832
792,81	25,443
792,99	21,715
793,16	22,016
793,34	23,577
793,51	23,433
793,69	24,901
793,86	21,784
794,04	25,454
794,21	25,945
794,39	22,757
794,56	21,635
794,73	26,668
794,91	27,731
795,08	23,877
795,26	24,331
795,43	20,948
795,61	28,856
795,78	22,659
795,95	26,891
796,13	24,216
796,30	26,051
796,48	21,523
796,65	19,277
796,83	24,830
797,00	26,969
797,17	23,355
797,35	21,869
797,52	25,032
797,70	25,124
797,87	25,355
798,04	27,672
798,22	21,571
798,39	24,325
798,57	24,732
798,74	23,040
798,91	21,694
799,09	26,539
799,26	24,751
799,44	25,773
799,61	22,258
799,78	21,869
799,96	27,387
800,13	23,103
800,31	27,589
800,48	26,815
800,65	29,071
800,83	26,985
801,00	23,868
801,17	22,220
801,35	27,165
801,52	27,787
801,70	25,532
801,87	24,535
802,04	24,799
802,22	20,767
802,39	25,370
802,56	26,937
802,74	28,170
802,91	22,321
803,08	21,985
803,26	24,904
803,43	30,440
803,61	20,419
803,78	23,706
803,95	25,967
804,13	25,478
804,30	22,736
804,47	27,674
804,65	26,233
804,82	25,132
804,99	27,707
805,17	25,085
805,34	34,383
805,51	27,167
805,69	23,141
805,86	27,407
806,03	31,565
806,21	27,442
806,38	27,765
806,55	22,173
806,72	27,326
806,90	30,564
807,07	23,927
807,24	23,372
807,42	23,427
807,59	25,995
807,76	19,813
807,94	30,463
808,11	31,210
808,28	28,845
808,45	25,378
808,63	23,558
808,80	29,840
808,97	21,424
809,15	25,781
809,32	23,783
809,49	24,928
809,67	28,541
809,84	27,268
810,01	30,777
810,18	35,711
810,36	29,994
810,53	25,885
810,70	26,379
810,87	25,293
811,05	28,535
811,22	25,961
811,39	23,410
811,57	30,989
811,74	26,926
811,91	29,370
812,08	25,184
812,26	24,853
812,43	21,239
812,60	30,249
812,77	25,756
812,95	26,753
813,12	24,003
813,29	22,477
813,46	25,792
813,64	28,981
813,81	27,199
813,98	26,826
814,15	26,557
814,32	31,337
814,50	25,719
814,67	25,059
814,84	30,444
815,01	24,636
815,19	23,757
815,36	26,514
815,53	24,300
815,70	26,654
815,87	30,758
816,05	24,469
816,22	28,331
816,39	30,449
816,56	30,686
816,74	29,884
816,91	29,511
817,08	32,475
817,25	34,393
817,42	30,291
817,60	28,624
817,77	31,174
817,94	25,304
818,11	27,328
818,28	19,978
818,45	28,728
818,63	26,903
818,80	25,138
818,97	23,487
819,14	32,183
819,31	33,426
819,49	30,479
819,66	22,777
819,83	28,785
820,00	31,523
820,17	25,249
820,34	27,530
820,52	31,172
820,69	28,711
820,86	27,082
821,03	25,310
821,20	28,984
821,37	32,211
821,55	29,214
821,72	22,901
821,89	30,261
822,06	28,912
822,23	22,885
822,40	23,998
822,57	32,110
822,75	29,487
822,92	20,246
823,09	31,842
823,26	32,204
823,43	30,967
823,60	23,184
823,77	24,330
823,94	30,733
824,12	29,541
824,29	24,906
824,46	32,841
824,63	39,255
824,80	32,654
824,97	29,142
825,14	27,100
825,31	29,443
825,49	28,390
825,66	15,843
825,83	26,939
826,00	29,478
826,17	37,481
826,34	31,864
826,51	22,273
826,68	26,803
826,85	25,469
827,02	21,672
827,20	23,554
827,37	25,031
827,54	33,982
827,71	28,038
827,88	31,345
828,05	30,833
828,22	32,824
828,39	39,816
828,56	30,811
828,73	31,718
828,90	29,699
829,07	28,580
829,25	24,876
829,42	29,279
829,59	22,068
829,76	24,566
829,93	29,673
830,10	30,061
830,27	29,379
830,44	25,517
830,61	21,855
830,78	35,775
830,95	34,293
831,12	27,305
831,29	24,002
831,46	22,548
831,63	22,907
831,80	30,413
831,97	29,500
832,14	32,354
832,31	36,437
832,48	26,122
832,65	29,455
832,83	26,286
833,00	31,864
833,17	27,529
833,34	27,586
833,51	34,402
833,68	36,003
833,85	30,967
834,02	23,231
834,19	32,945
834,36	31,651
834,53	25,889
834,70	23,839
834,87	43,837
835,04	28,650
835,21	29,039
835,38	31,212
835,55	22,948
835,72	40,225
835,89	31,467
836,06	25,773
836,23	42,713
836,40	19,861
836,57	26,634
836,74	34,609
836,91	26,635
837,08	44,783
837,25	27,485
837,42	26,846
837,59	24,924
837,76	25,198
837,93	30,360
838,09	32,955
838,26	26,900
838,43	42,246
838,60	37,704
838,77	31,050
838,94	32,043
839,11	43,095
839,28	36,941
839,45	25,660
839,62	26,392
839,79	26,060
839,96	30,868
840,13	32,593
840,30	27,051
840,47	31,609
840,64	31,529
840,81	34,423
840,98	23,865
841,15	39,665
841,32	24,911
841,48	36,958
841,65	30,270
841,82	34,141
841,99	31,290
842,16	37,902
842,33	23,850
842,50	34,074
842,67	18,932
842,84	24,730
843,01	39,721
843,18	22,096
843,35	29,919
843,52	30,107
843,68	34,805
843,85	25,682
844,02	20,445
844,19	30,462
844,36	32,848
844,53	25,715
844,70	14,292
844,87	43,482
845,04	35,480
845,21	22,704
845,37	40,103
845,54	23,730
845,71	34,510
845,88	47,921
846,05	30,226
846,22	17,733
846,39	33,378
846,56	32,833
846,72	20,130
846,89	27,913
847,06	42,008
847,23	36,622
847,40	15,387
847,57	27,526
847,74	27,119
847,90	49,370
848,07	38,340
848,24	37,606
848,41	39,728
848,58	42,913
848,75	32,440
848,92	27,114
849,08	28,260
849,25	25,204
849,42	29,232
849,59	32,990
849,76	21,269
849,93	43,379
850,09	35,112
850,26	19,587
850,43	39,494
850,60	30,462
850,77	16,547
850,94	36,089
851,10	24,534
851,27	22,042
851,44	36,836
851,61	31,839
851,78	41,709
851,95	37,785
852,11	27,953
852,28	22,547
852,45	45,552
852,62	49,127
852,79	39,814
852,95	36,369
853,12	40,155
853,29	23,795
853,46	27,938
853,63	36,216
853,79	27,122
853,96	31,189
854,13	43,867
854,30	21,176
854,46	48,772
854,63	25,170
854,80	35,817
854,97	34,729
855,14	59,177
855,30	42,430
855,47	48,934
855,64	39,374
855,81	30,327
855,97	50,209
856,14	43,036
856,31	22,088
856,48	43,491
856,65	47,650
856,81	34,065
856,98	28,920
857,15	13,236
857,32	45,738
857,48	37,674
857,65	49,910
857,82	47,097
857,99	45,534
858,15	39,283
858,32	35,346
858,49	15,991
858,65	54,756
858,82	30,777
858,99	45,886
859,16	48,313
859,32	44,205
859,49	35,784
859,66	53,801
859,83	38,927
859,99	32,842
860,16	27,433
860,33	39,765
860,49	48,337
860,66	38,567
860,83	36,900
861,00	37,741
861,16	50,717
861,33	45,217
861,50	16,168
861,66	43,686
861,83	54,847
862,00	35,371
862,16	27,382
862,33	42,946
862,50	71,651
862,67	52,880
862,83	34,080
863,00	49,490
863,17	58,845
863,33	26,201
863,50	33,951
863,67	40,490
863,83	40,612
864,00	43,654
864,17	37,494
864,33	22,615
864,50	25,527
864,67	45,186
864,83	26,647
865,00	43,557
865,17	26,853
865,33	47,098
865,50	27,193
865,67	39,425
865,83	47,432
866,00	46,132
866,17	39,731
866,33	46,098
866,50	33,640
866,66	33,564
866,83	48,817
867,00	52,649
867,16	59,196
867,33	77,096
867,50	30,532
867,66	37,440
867,83	45,805
868,00	39,515
868,16	40,631
868,33	37,851
868,49	31,705
868,66	66,067
868,83	37,665
868,99	57,774
869,16	92,097
869,32	60,749
869,49	38,461
869,66	28,895
869,82	61,166
869,99	64,503
870,15	41,733
870,32	54,473
870,49	93,908
870,65	82,453
870,82	40,957
870,98	44,838
871,15	86,697
871,32	48,946
871,48	44,067
871,65	32,414
871,81	40,090
871,98	34,811
872,15	32,683
872,31	17,316
872,48	74,852
872,64	58,143
872,81	57,061
872,97	27,335
873,14	96,947
873,31	67,229
873,47	47,344
873,64	67,579
873,80	90,455
873,97	81,704
874,13	58,041
874,30	45,959
874,46	56,535
874,63	43,881
874,80	28,019
874,96	40,787
875,13	69,235
875,29	38,398
875,46	57,760
875,62	23,524
875,79	79,708
875,95	46,922
876,12	2,762
876,28	26,189
876,45	112,320
876,61	33,027
876,78	44,697
876,94	13,787
877,11	81,168
877,27	100,866
877,44	64,384
877,60	48,579
877,77	48,501
877,94	108,072
878,10	51,006
878,27	86,025
878,43	102,577
878,60	48,041
878,76	50,776
878,93	78,097
879,09	48,444
879,26	103,188
879,42	61,106
879,58	54,366
879,75	120,043
879,91	105,224
880,08	16,700
880,24	79,594
880,41	6,663
880,57	61,191
880,74	112,186
880,90	59,089
881,07	87,997
881,23	128,594
881,40	90,104
881,56	58,574
881,73	133,116
881,89	76,592
882,06	36,669
882,22	127,147
882,38	95,343
882,55	144,419
882,71	90,185
882,88	75,004
883,04	74,431
883,21	115,274
883,37	127,883
883,54	113,580
883,70	251,066
883,86	134,893
884,03	117,648
884,19	94,379
884,36	110,023
884,52	136,275
884,69	130,939
884,85	19,287
885,01	57,994
885,18	109,580
885,34	61,229
885,51	68,133
885,67	84,296
>>>>> Data<<<<< Espectral Procesado Extremo
