Fichero De Datos De SpectraSuite
++++++++++++++++++++++++++++++++++++
Fecha: Wed Apr 22 08:49:08 CEST 2009
Usuario: evoflor
Presente Oscuro Del Espectro: Sí
La Referencia de Presente Del Espectro De: Sí
Muestreados de los componentes de Número de espectros: 1
Espectrómetros: USB4F02353
Tiempo de integración (usec): 500000 (USB4F02353)
Promedio de Espectros Hechos un: 5 (USB4F02353)
El Alisar Del Furgón: 0 (USB4F02353)
Párrafo de de Corregir del la del del de Eléctrica del obscuridad: Sí (USB4F02353)
Estrobo/Lámpara Permitido: No (USB4F02353)
Correct for Detector Non-linearity: No (USB4F02353)
Párrafo de de Corregir del la del del de Externa del luz: No (USB4F02353)
Procesado del espectro de Número de pixeles en: 3648
>>>>> Comienza Data<<<<< Espectral Procesado Del EL
177,79	846,611
178,00	846,611
178,22	846,611
178,44	-7873,164
178,66	591,371
178,88	100,392
179,09	3719,794
179,31	289,281
179,53	-6166,475
179,75	452,697
179,96	-236,183
180,18	365,945
180,40	-292,861
180,62	-152,774
180,83	214,492
181,05	-761,540
181,27	-820,482
181,49	29,082
181,70	-299,727
181,92	273,799
182,14	248,118
182,36	-425,939
182,58	180,311
182,79	-1029,890
183,01	-12483,366
183,23	443,926
183,45	-145,948
183,66	53,598
183,88	785,224
184,10	650,810
184,32	937,512
184,53	-270,590
184,75	518,200
184,97	-186,307
185,18	1673,464
185,40	286,202
185,62	-676,998
185,84	706,275
186,05	2895,401
186,27	-6373,134
186,49	-652,445
186,71	227,808
186,92	655,303
187,14	1513,622
187,36	249,183
187,58	657,952
187,79	-448,561
188,01	-1294,130
188,23	152,670
188,45	19,582
188,66	-54,130
188,88	230,105
189,10	-469,145
189,31	-63,438
189,53	-139,112
189,75	1052,665
189,97	177,037
190,18	164,057
190,40	1150,171
190,62	238,308
190,83	456,209
191,05	-181,238
191,27	6908,612
191,49	581,558
191,70	460,183
191,92	456,808
192,14	542,991
192,35	-1467,119
192,57	-942,526
192,79	-1437,041
193,01	553,171
193,22	-174,104
193,44	-505,650
193,66	361,065
193,87	668,400
194,09	210,181
194,31	306,854
194,53	-421,982
194,74	501,292
194,96	271,032
195,18	863,625
195,39	-1192,962
195,61	-384,133
195,83	2737,236
196,04	363,279
196,26	72,898
196,48	1772,589
196,70	405,819
196,91	211,547
197,13	-46,158
197,35	204,818
197,56	-645,088
197,78	5688,906
198,00	428,493
198,21	208,444
198,43	918,696
198,65	249,983
198,86	86,574
199,08	596,425
199,30	235,162
199,51	1074,560
199,73	-2627,022
199,95	227,793
200,16	554,074
200,38	178,504
200,60	1918,542
200,81	-384,231
201,03	8904,306
201,25	686,220
201,46	-763,092
201,68	563,181
201,90	493,667
202,11	97,671
202,33	89,216
202,55	165,720
202,76	638,431
202,98	578,367
203,20	230,292
203,41	-1405,019
203,63	415,853
203,85	167,032
204,06	-572,128
204,28	192,989
204,50	-114,288
204,71	314,978
204,93	106,566
205,15	212,583
205,36	-184,336
205,58	-1189,807
205,80	-1599,513
206,01	-2972,603
206,23	327,336
206,45	521,013
206,66	251,667
206,88	-422,415
207,10	2034,566
207,31	-38072,848
207,53	399,093
207,75	155,690
207,96	371,103
208,18	285,612
208,39	270,453
208,61	700,764
208,83	9017,223
209,04	391,164
209,26	389,553
209,48	68,269
209,69	-117,147
209,91	806,333
210,13	26,633
210,34	200,133
210,56	340,732
210,77	2026,549
210,99	340,256
211,21	-215,503
211,42	166,392
211,64	662,328
211,86	385,959
212,07	206,180
212,29	688,982
212,50	1131,884
212,72	227,059
212,94	237,791
213,15	146,920
213,37	672,109
213,58	153,113
213,80	317,957
214,02	2478,301
214,23	292,844
214,45	223,425
214,67	51,317
214,88	-91,885
215,10	1419,533
215,31	-1348,762
215,53	51,445
215,75	314,319
215,96	484,315
216,18	81,094
216,39	220,249
216,61	381,402
216,83	1092,589
217,04	494,913
217,26	4,254
217,47	502,519
217,69	287,654
217,91	89,230
218,12	1029,563
218,34	95,662
218,55	234,066
218,77	5,819
218,99	158,762
219,20	190,861
219,42	480,819
219,63	35,896
219,85	346,986
220,06	-275,597
220,28	114,957
220,50	43,487
220,71	124,400
220,93	388,498
221,14	441,236
221,36	14,603
221,58	181,876
221,79	73,605
222,01	166,450
222,22	211,756
222,44	-0,402
222,65	123,734
222,87	17,800
223,09	109,005
223,30	68,825
223,52	225,066
223,73	49,584
223,95	35,747
224,16	82,713
224,38	140,723
224,60	57,407
224,81	65,315
225,03	97,963
225,24	89,841
225,46	-44,901
225,67	23,856
225,89	30,276
226,10	104,867
226,32	73,409
226,54	-24,933
226,75	0,165
226,97	103,021
227,18	84,116
227,40	72,800
227,61	53,957
227,83	40,840
228,04	58,496
228,26	64,570
228,47	10,809
228,69	82,899
228,91	61,325
229,12	114,574
229,34	16,431
229,55	62,479
229,77	38,260
229,98	20,765
230,20	33,219
230,41	-1,304
230,63	51,540
230,84	39,369
231,06	46,189
231,27	0,484
231,49	37,575
231,71	20,032
231,92	19,250
232,14	-5,496
232,35	37,493
232,57	-12,821
232,78	20,853
233,00	16,108
233,21	18,715
233,43	13,607
233,64	-12,444
233,86	30,656
234,07	28,724
234,29	-1,379
234,50	11,143
234,72	24,407
234,93	11,697
235,15	3,935
235,36	11,698
235,58	49,934
235,79	25,441
236,01	4,445
236,22	18,554
236,44	29,187
236,65	18,296
236,87	12,632
237,08	7,448
237,30	-1,720
237,51	21,071
237,73	15,330
237,94	9,674
238,16	15,906
238,37	4,197
238,59	1,038
238,80	3,869
239,02	5,035
239,23	26,050
239,45	4,555
239,66	19,387
239,88	23,639
240,09	17,236
240,31	6,474
240,52	6,841
240,74	11,212
240,95	12,477
241,17	8,309
241,38	6,330
241,60	2,343
241,81	16,110
242,03	-0,762
242,24	10,888
242,46	6,149
242,67	-4,811
242,89	13,939
243,10	11,418
243,32	12,955
243,53	12,603
243,75	7,845
243,96	9,667
244,18	8,484
244,39	14,158
244,60	-0,161
244,82	3,272
245,03	14,459
245,25	8,162
245,46	25,097
245,68	0,822
245,89	30,231
246,11	19,242
246,32	8,214
246,54	9,384
246,75	6,982
246,97	13,855
247,18	18,132
247,39	6,300
247,61	10,461
247,82	14,745
248,04	2,752
248,25	0,479
248,47	3,559
248,68	10,633
248,90	7,053
249,11	8,372
249,33	15,311
249,54	6,474
249,75	7,876
249,97	1,457
250,18	18,191
250,40	14,710
250,61	2,549
250,83	-0,954
251,04	7,085
251,25	14,122
251,47	6,987
251,68	3,755
251,90	5,967
252,11	7,634
252,33	6,628
252,54	3,635
252,76	-1,193
252,97	0,929
253,18	4,533
253,40	6,501
253,61	3,124
253,83	5,418
254,04	6,191
254,25	-1,052
254,47	-1,186
254,68	6,174
254,90	3,930
255,11	2,733
255,33	5,994
255,54	2,781
255,75	2,717
255,97	6,679
256,18	0,339
256,40	5,820
256,61	7,289
256,82	2,137
257,04	9,038
257,25	2,331
257,47	2,749
257,68	6,822
257,89	3,697
258,11	2,686
258,32	8,127
258,54	2,124
258,75	13,069
258,96	7,586
259,18	5,255
259,39	3,505
259,61	9,897
259,82	0,703
260,03	0,205
260,25	4,383
260,46	6,681
260,68	1,587
260,89	2,842
261,10	7,093
261,32	2,763
261,53	-3,594
261,75	7,805
261,96	3,320
262,17	17,242
262,39	7,134
262,60	0,563
262,81	3,607
263,03	9,392
263,24	7,759
263,46	0,090
263,67	5,073
263,88	7,469
264,10	3,519
264,31	4,084
264,52	4,168
264,74	4,733
264,95	5,073
265,17	7,383
265,38	4,625
265,59	9,548
265,81	4,184
266,02	-1,048
266,23	-0,711
266,45	9,337
266,66	7,481
266,87	4,575
267,09	3,070
267,30	9,903
267,52	9,763
267,73	5,742
267,94	0,862
268,16	5,350
268,37	0,265
268,58	7,131
268,80	-3,599
269,01	4,961
269,22	6,590
269,44	6,820
269,65	5,433
269,86	2,526
270,08	7,252
270,29	2,781
270,50	2,367
270,72	6,408
270,93	-0,587
271,14	4,375
271,36	1,740
271,57	5,069
271,78	5,545
272,00	4,648
272,21	7,649
272,42	4,626
272,64	8,117
272,85	-0,372
273,06	2,764
273,28	5,210
273,49	0,393
273,70	5,812
273,92	6,450
274,13	3,988
274,34	-2,980
274,56	6,738
274,77	3,971
274,98	9,278
275,20	4,831
275,41	5,620
275,62	-0,142
275,84	5,763
276,05	13,160
276,26	0,791
276,47	2,268
276,69	8,849
276,90	9,869
277,11	3,766
277,33	1,755
277,54	9,240
277,75	3,470
277,97	2,201
278,18	2,078
278,39	7,120
278,61	0,490
278,82	7,739
279,03	5,338
279,24	1,607
279,46	6,362
279,67	9,036
279,88	3,604
280,10	6,216
280,31	0,380
280,52	1,813
280,73	1,655
280,95	6,685
281,16	5,115
281,37	3,090
281,59	3,491
281,80	8,430
282,01	1,487
282,22	0,281
282,44	3,892
282,65	11,055
282,86	3,384
283,08	-1,503
283,29	1,771
283,50	0,356
283,71	4,866
283,93	5,156
284,14	-0,275
284,35	2,516
284,56	3,208
284,78	-0,645
284,99	6,555
285,20	8,397
285,42	2,469
285,63	3,291
285,84	1,937
286,05	2,378
286,27	2,411
286,48	6,672
286,69	4,280
286,90	2,942
287,12	2,050
287,33	1,559
287,54	2,243
287,75	10,024
287,97	2,396
288,18	3,527
288,39	3,745
288,60	3,881
288,82	1,910
289,03	0,673
289,24	6,030
289,45	7,254
289,67	2,087
289,88	4,291
290,09	7,092
290,30	1,667
290,52	2,984
290,73	-1,395
290,94	1,964
291,15	3,169
291,37	4,077
291,58	2,873
291,79	3,184
292,00	3,036
292,21	2,683
292,43	5,225
292,64	-0,891
292,85	3,392
293,06	7,236
293,28	1,179
293,49	0,758
293,70	7,338
293,91	-0,137
294,12	2,497
294,34	2,025
294,55	6,308
294,76	5,802
294,97	6,783
295,19	3,388
295,40	4,462
295,61	4,788
295,82	5,537
296,03	2,716
296,25	3,979
296,46	0,544
296,67	2,274
296,88	4,472
297,09	2,321
297,31	1,008
297,52	3,803
297,73	0,987
297,94	0,256
298,15	3,187
298,37	1,629
298,58	1,846
298,79	3,188
299,00	-0,793
299,21	3,405
299,43	-0,115
299,64	7,127
299,85	0,700
300,06	0,041
300,27	0,180
300,49	4,790
300,70	6,127
300,91	2,611
301,12	1,607
301,33	6,814
301,54	2,109
301,76	4,353
301,97	3,495
302,18	6,968
302,39	6,788
302,60	3,412
302,82	1,774
303,03	8,820
303,24	1,802
303,45	4,281
303,66	5,257
303,87	-0,468
304,09	5,451
304,30	-0,738
304,51	1,720
304,72	1,115
304,93	3,681
305,14	1,867
305,36	1,574
305,57	0,833
305,78	4,170
305,99	3,066
306,20	3,703
306,41	0,894
306,62	1,717
306,84	2,337
307,05	3,792
307,26	2,957
307,47	7,777
307,68	2,789
307,89	2,456
308,11	4,720
308,32	3,820
308,53	1,960
308,74	1,276
308,95	1,400
309,16	7,571
309,37	4,052
309,59	1,266
309,80	2,454
310,01	3,493
310,22	3,143
310,43	3,889
310,64	4,810
310,85	4,953
311,06	2,199
311,28	3,865
311,49	2,796
311,70	7,273
311,91	2,205
312,12	1,568
312,33	0,173
312,54	3,783
312,75	6,649
312,97	1,533
313,18	7,791
313,39	0,374
313,60	3,011
313,81	2,563
314,02	1,936
314,23	5,556
314,44	1,855
314,65	1,083
314,87	2,483
315,08	3,144
315,29	2,397
315,50	4,514
315,71	8,819
315,92	6,816
316,13	0,443
316,34	2,230
316,55	6,990
316,77	-0,144
316,98	0,261
317,19	2,021
317,40	3,993
317,61	4,889
317,82	4,280
318,03	0,580
318,24	3,116
318,45	6,346
318,66	3,428
318,87	0,995
319,09	2,823
319,30	4,452
319,51	4,604
319,72	3,976
319,93	3,277
320,14	5,100
320,35	6,190
320,56	0,768
320,77	2,756
320,98	6,609
321,19	6,015
321,40	2,793
321,62	1,636
321,83	-1,550
322,04	3,235
322,25	4,552
322,46	8,642
322,67	4,726
322,88	5,134
323,09	3,750
323,30	6,072
323,51	8,150
323,72	3,057
323,93	1,167
324,14	1,342
324,35	-1,873
324,56	0,785
324,77	2,641
324,99	3,384
325,20	1,164
325,41	4,274
325,62	3,547
325,83	-2,622
326,04	2,791
326,25	2,282
326,46	1,052
326,67	2,294
326,88	4,953
327,09	1,592
327,30	3,543
327,51	3,890
327,72	3,751
327,93	3,489
328,14	2,307
328,35	3,643
328,56	1,993
328,77	6,309
328,98	5,910
329,19	3,052
329,40	4,065
329,61	0,113
329,82	0,489
330,04	6,130
330,25	3,446
330,46	3,860
330,67	2,859
330,88	5,396
331,09	1,487
331,30	3,144
331,51	3,365
331,72	4,637
331,93	4,494
332,14	1,223
332,35	3,311
332,56	3,070
332,77	5,485
332,98	2,979
333,19	4,347
333,40	2,715
333,61	3,481
333,82	2,109
334,03	3,184
334,24	9,972
334,45	4,102
334,66	4,063
334,87	3,603
335,08	2,819
335,29	3,543
335,50	3,052
335,71	0,007
335,92	4,377
336,13	4,342
336,34	0,214
336,55	4,527
336,76	5,721
336,97	2,914
337,18	1,635
337,39	4,017
337,60	4,333
337,81	4,617
338,02	4,855
338,23	2,299
338,44	3,861
338,65	-0,406
338,86	2,269
339,07	3,268
339,28	1,454
339,49	3,517
339,70	0,620
339,91	3,929
340,11	6,684
340,32	2,044
340,53	1,854
340,74	-0,267
340,95	1,881
341,16	1,643
341,37	3,940
341,58	3,168
341,79	0,453
342,00	1,912
342,21	-3,182
342,42	2,289
342,63	5,345
342,84	4,731
343,05	2,640
343,26	7,506
343,47	4,200
343,68	-0,454
343,89	2,092
344,10	0,464
344,31	2,742
344,52	5,543
344,73	0,780
344,94	1,845
345,14	4,085
345,35	2,423
345,56	0,586
345,77	0,691
345,98	1,023
346,19	3,403
346,40	4,265
346,61	-0,650
346,82	2,700
347,03	5,441
347,24	-0,729
347,45	3,117
347,66	6,424
347,87	1,396
348,08	6,834
348,28	2,983
348,49	1,731
348,70	4,662
348,91	3,224
349,12	1,082
349,33	-2,838
349,54	6,082
349,75	4,842
349,96	2,421
350,17	6,424
350,38	0,819
350,59	2,261
350,80	2,578
351,00	1,456
351,21	9,246
351,42	1,987
351,63	-0,268
351,84	4,291
352,05	7,793
352,26	1,692
352,47	5,080
352,68	6,362
352,89	2,756
353,09	-0,491
353,30	-0,422
353,51	2,761
353,72	9,528
353,93	7,239
354,14	1,637
354,35	2,472
354,56	5,969
354,77	1,452
354,98	-0,863
355,18	3,704
355,39	9,747
355,60	0,540
355,81	5,946
356,02	0,743
356,23	0,927
356,44	5,310
356,65	0,800
356,85	7,269
357,06	7,444
357,27	3,417
357,48	-0,722
357,69	7,037
357,90	5,268
358,11	-3,274
358,32	2,173
358,52	6,870
358,73	2,180
358,94	0,891
359,15	3,228
359,36	5,845
359,57	3,719
359,78	7,513
359,98	4,616
360,19	1,931
360,40	0,311
360,61	6,207
360,82	1,409
361,03	9,989
361,24	14,399
361,44	1,500
361,65	3,409
361,86	1,097
362,07	4,865
362,28	8,090
362,49	2,812
362,70	5,200
362,90	2,372
363,11	0,387
363,32	1,075
363,53	1,893
363,74	9,041
363,95	5,746
364,15	1,061
364,36	6,104
364,57	3,042
364,78	-0,223
364,99	2,538
365,20	4,675
365,40	7,958
365,61	4,171
365,82	2,023
366,03	6,824
366,24	0,600
366,45	-2,395
366,65	0,325
366,86	3,849
367,07	1,701
367,28	0,742
367,49	0,836
367,69	6,314
367,90	3,117
368,11	4,677
368,32	4,357
368,53	8,208
368,73	1,445
368,94	2,153
369,15	5,355
369,36	6,827
369,57	3,736
369,78	3,445
369,98	4,708
370,19	5,465
370,40	1,626
370,61	2,973
370,82	4,560
371,02	8,587
371,23	2,656
371,44	3,413
371,65	2,453
371,85	7,195
372,06	2,123
372,27	4,599
372,48	0,724
372,69	6,076
372,89	4,485
373,10	4,366
373,31	3,290
373,52	5,552
373,73	7,737
373,93	4,827
374,14	1,744
374,35	2,055
374,56	4,121
374,76	4,682
374,97	4,546
375,18	7,373
375,39	3,247
375,60	4,541
375,80	2,375
376,01	2,248
376,22	6,431
376,43	3,277
376,63	5,293
376,84	5,232
377,05	5,870
377,26	1,157
377,46	4,191
377,67	2,931
377,88	1,130
378,09	2,882
378,29	3,519
378,50	4,295
378,71	6,010
378,92	-0,768
379,12	-0,059
379,33	0,776
379,54	4,118
379,75	6,484
379,95	4,854
380,16	4,670
380,37	7,010
380,58	2,795
380,78	3,976
380,99	0,731
381,20	1,117
381,41	6,197
381,61	3,136
381,82	5,346
382,03	4,360
382,24	6,431
382,44	2,483
382,65	1,845
382,86	9,024
383,06	6,829
383,27	2,665
383,48	3,779
383,69	6,364
383,89	2,322
384,10	0,806
384,31	4,335
384,51	7,974
384,72	7,696
384,93	3,080
385,14	2,541
385,34	3,208
385,55	2,828
385,76	-1,223
385,96	9,363
386,17	3,209
386,38	0,197
386,59	9,598
386,79	6,040
387,00	11,040
387,21	6,771
387,41	5,532
387,62	5,755
387,83	6,505
388,03	2,914
388,24	3,964
388,45	4,124
388,66	6,303
388,86	1,880
389,07	2,945
389,28	13,354
389,48	2,185
389,69	3,807
389,90	1,518
390,10	3,234
390,31	8,198
390,52	4,903
390,72	5,270
390,93	6,406
391,14	4,084
391,34	7,216
391,55	4,211
391,76	7,476
391,96	11,117
392,17	4,381
392,38	3,622
392,58	5,296
392,79	4,947
393,00	2,810
393,20	3,693
393,41	5,952
393,62	10,168
393,82	2,653
394,03	5,514
394,24	2,786
394,44	8,395
394,65	11,125
394,86	4,516
395,06	7,831
395,27	6,356
395,48	3,778
395,68	3,797
395,89	6,168
396,10	10,400
396,30	2,819
396,51	4,023
396,72	7,418
396,92	0,746
397,13	8,478
397,34	2,721
397,54	9,429
397,75	6,704
397,95	4,727
398,16	5,355
398,37	9,662
398,57	0,409
398,78	5,846
398,99	7,799
399,19	10,057
399,40	14,059
399,60	5,149
399,81	10,728
400,02	13,759
400,22	11,349
400,43	12,373
400,64	4,846
400,84	4,113
401,05	8,565
401,25	7,848
401,46	7,255
401,67	11,309
401,87	5,864
402,08	3,150
402,29	8,695
402,49	12,434
402,70	10,217
402,90	7,050
403,11	11,514
403,32	3,809
403,52	3,879
403,73	7,496
403,93	11,552
404,14	15,123
404,35	6,879
404,55	5,728
404,76	6,426
404,96	8,838
405,17	14,446
405,38	15,549
405,58	8,903
405,79	12,945
405,99	17,024
406,20	9,362
406,40	8,661
406,61	11,906
406,82	9,822
407,02	9,532
407,23	4,868
407,43	10,705
407,64	6,183
407,85	11,801
408,05	6,828
408,26	21,039
408,46	17,057
408,67	12,008
408,87	11,511
409,08	9,193
409,29	16,723
409,49	18,347
409,70	11,903
409,90	12,922
410,11	15,132
410,31	14,842
410,52	11,447
410,72	14,944
410,93	14,834
411,14	12,629
411,34	9,766
411,55	9,745
411,75	14,632
411,96	15,265
412,16	14,562
412,37	10,958
412,57	15,878
412,78	19,628
412,99	12,134
413,19	18,969
413,40	13,907
413,60	14,365
413,81	13,840
414,01	12,672
414,22	15,398
414,42	14,982
414,63	12,737
414,83	13,824
415,04	21,396
415,24	18,038
415,45	13,473
415,65	14,462
415,86	19,908
416,07	15,068
416,27	16,421
416,48	18,498
416,68	24,132
416,89	13,810
417,09	16,377
417,30	21,098
417,50	11,961
417,71	19,147
417,91	17,838
418,12	15,151
418,32	19,345
418,53	12,913
418,73	17,314
418,94	15,237
419,14	22,784
419,35	13,379
419,55	19,544
419,76	20,609
419,96	18,754
420,17	20,579
420,37	15,155
420,58	21,340
420,78	19,893
420,99	17,478
421,19	22,362
421,40	24,927
421,60	20,830
421,81	15,198
422,01	17,713
422,22	20,430
422,42	21,730
422,63	20,323
422,83	20,822
423,04	25,144
423,24	27,208
423,45	17,701
423,65	19,802
423,86	23,750
424,06	25,348
424,27	17,868
424,47	17,254
424,67	16,408
424,88	19,280
425,08	16,852
425,29	24,314
425,49	14,578
425,70	17,498
425,90	18,708
426,11	19,091
426,31	18,490
426,52	21,720
426,72	21,267
426,93	17,308
427,13	22,780
427,33	15,985
427,54	22,317
427,74	22,627
427,95	27,700
428,15	20,817
428,36	20,034
428,56	17,306
428,77	20,431
428,97	23,836
429,18	19,813
429,38	20,154
429,58	22,546
429,79	22,338
429,99	16,680
430,20	21,921
430,40	25,656
430,61	18,881
430,81	22,585
431,01	23,367
431,22	22,612
431,42	23,350
431,63	17,583
431,83	22,233
432,04	24,586
432,24	23,507
432,44	21,945
432,65	22,378
432,85	19,979
433,06	21,087
433,26	20,776
433,47	21,037
433,67	18,544
433,87	20,672
434,08	22,423
434,28	17,574
434,49	20,044
434,69	31,638
434,89	24,207
435,10	19,271
435,30	26,432
435,51	19,631
435,71	20,466
435,91	19,438
436,12	20,410
436,32	19,963
436,53	20,860
436,73	23,382
436,93	24,406
437,14	20,841
437,34	21,083
437,55	18,011
437,75	26,984
437,95	26,091
438,16	18,074
438,36	20,098
438,57	23,547
438,77	18,170
438,97	24,851
439,18	24,191
439,38	23,047
439,58	19,197
439,79	20,623
439,99	18,007
440,20	27,399
440,40	26,800
440,60	26,887
440,81	24,036
441,01	23,110
441,21	26,435
441,42	22,659
441,62	25,344
441,83	20,531
442,03	20,044
442,23	26,948
442,44	24,081
442,64	22,091
442,84	21,067
443,05	24,996
443,25	22,300
443,45	24,424
443,66	22,912
443,86	19,709
444,06	25,573
444,27	22,102
444,47	26,547
444,67	23,318
444,88	25,400
445,08	23,088
445,28	20,294
445,49	21,360
445,69	22,972
445,90	24,228
446,10	26,434
446,30	22,423
446,51	21,038
446,71	25,986
446,91	26,743
447,12	31,065
447,32	19,458
447,52	27,411
447,72	26,380
447,93	20,725
448,13	20,927
448,33	27,716
448,54	25,967
448,74	22,997
448,94	20,516
449,15	26,643
449,35	23,694
449,55	28,540
449,76	23,457
449,96	20,950
450,16	21,511
450,37	21,566
450,57	22,772
450,77	22,793
450,98	21,673
451,18	27,384
451,38	26,438
451,58	25,633
451,79	21,317
451,99	22,509
452,19	27,032
452,40	32,215
452,60	18,320
452,80	25,741
453,00	25,999
453,21	19,057
453,41	24,740
453,61	20,648
453,82	25,883
454,02	18,117
454,22	35,385
454,42	23,856
454,63	22,004
454,83	22,505
455,03	26,683
455,24	22,115
455,44	24,918
455,64	21,601
455,84	23,516
456,05	20,231
456,25	18,502
456,45	21,933
456,65	25,507
456,86	26,340
457,06	25,748
457,26	27,137
457,47	27,521
457,67	22,680
457,87	20,984
458,07	23,289
458,28	26,325
458,48	28,565
458,68	21,334
458,88	27,750
459,09	24,315
459,29	29,041
459,49	18,974
459,69	24,894
459,90	23,701
460,10	21,346
460,30	25,852
460,50	20,757
460,71	26,837
460,91	21,746
461,11	26,317
461,31	25,301
461,52	26,632
461,72	22,874
461,92	23,428
462,12	28,442
462,32	21,366
462,53	22,175
462,73	23,811
462,93	24,970
463,13	25,199
463,34	24,515
463,54	27,860
463,74	21,971
463,94	23,197
464,14	26,812
464,35	20,171
464,55	29,372
464,75	31,692
464,95	24,344
465,16	18,165
465,36	29,885
465,56	23,836
465,76	20,562
465,96	26,814
466,17	25,065
466,37	18,777
466,57	27,683
466,77	24,944
466,97	20,776
467,18	26,424
467,38	24,964
467,58	28,562
467,78	28,316
467,98	24,520
468,19	24,161
468,39	24,466
468,59	21,671
468,79	25,537
468,99	26,202
469,19	23,627
469,40	22,365
469,60	22,870
469,80	22,633
470,00	24,170
470,20	27,903
470,41	24,738
470,61	23,784
470,81	25,835
471,01	23,671
471,21	29,198
471,41	28,073
471,62	25,186
471,82	22,402
472,02	24,148
472,22	22,038
472,42	22,117
472,62	26,341
472,83	20,135
473,03	28,462
473,23	22,693
473,43	27,539
473,63	23,637
473,83	23,541
474,03	24,484
474,24	28,437
474,44	21,248
474,64	24,217
474,84	19,163
475,04	20,486
475,24	28,151
475,45	23,206
475,65	25,666
475,85	26,961
476,05	20,602
476,25	22,007
476,45	24,082
476,65	25,008
476,85	25,135
477,06	24,588
477,26	18,732
477,46	23,875
477,66	24,820
477,86	24,200
478,06	23,926
478,26	29,094
478,46	22,901
478,67	26,247
478,87	24,057
479,07	24,104
479,27	26,441
479,47	21,880
479,67	19,020
479,87	21,180
480,07	29,412
480,28	22,367
480,48	22,359
480,68	26,637
480,88	27,855
481,08	26,131
481,28	24,887
481,48	23,081
481,68	22,277
481,88	18,954
482,08	24,217
482,29	27,577
482,49	22,005
482,69	22,325
482,89	20,200
483,09	29,425
483,29	21,194
483,49	15,893
483,69	22,266
483,89	23,769
484,09	20,024
484,29	20,427
484,50	22,405
484,70	25,220
484,90	22,365
485,10	24,437
485,30	24,237
485,50	28,224
485,70	25,452
485,90	21,400
486,10	19,608
486,30	19,373
486,50	22,615
486,70	20,728
486,90	22,703
487,10	24,312
487,30	21,008
487,51	21,838
487,71	19,233
487,91	23,313
488,11	24,836
488,31	19,486
488,51	21,909
488,71	20,633
488,91	22,904
489,11	19,872
489,31	20,020
489,51	23,357
489,71	21,398
489,91	22,714
490,11	21,973
490,31	24,109
490,51	24,775
490,71	24,298
490,91	21,026
491,11	22,513
491,31	23,919
491,51	21,477
491,72	22,224
491,92	22,491
492,12	26,377
492,32	24,050
492,52	26,340
492,72	21,431
492,92	21,933
493,12	23,976
493,32	19,291
493,52	22,071
493,72	24,078
493,92	24,395
494,12	21,388
494,32	23,603
494,52	22,386
494,72	22,604
494,92	22,136
495,12	25,784
495,32	27,198
495,52	23,103
495,72	23,642
495,92	22,402
496,12	26,914
496,32	24,454
496,52	23,562
496,72	26,021
496,92	24,307
497,12	24,714
497,32	25,014
497,52	23,244
497,72	24,222
497,92	23,250
498,12	23,153
498,32	23,651
498,52	22,101
498,72	21,224
498,92	21,411
499,12	23,129
499,32	21,212
499,52	25,816
499,72	22,623
499,92	25,337
500,12	23,920
500,32	22,530
500,52	24,556
500,72	26,648
500,91	27,928
501,11	26,534
501,31	22,517
501,51	26,295
501,71	25,112
501,91	24,791
502,11	21,610
502,31	24,949
502,51	25,278
502,71	24,468
502,91	21,193
503,11	25,248
503,31	26,152
503,51	19,847
503,71	23,997
503,91	25,152
504,11	23,092
504,31	24,686
504,51	21,807
504,71	29,172
504,91	20,102
505,10	25,524
505,30	23,196
505,50	25,885
505,70	23,710
505,90	25,067
506,10	20,918
506,30	26,158
506,50	22,414
506,70	25,957
506,90	24,067
507,10	22,830
507,30	21,476
507,50	23,298
507,70	27,299
507,89	26,112
508,09	23,210
508,29	22,287
508,49	22,287
508,69	24,163
508,89	22,672
509,09	22,333
509,29	22,892
509,49	25,876
509,69	26,793
509,89	26,529
510,09	24,870
510,28	24,398
510,48	23,823
510,68	22,490
510,88	24,395
511,08	25,977
511,28	23,684
511,48	21,317
511,68	21,045
511,88	28,181
512,07	23,199
512,27	24,369
512,47	23,605
512,67	22,689
512,87	20,924
513,07	23,193
513,27	20,754
513,47	22,667
513,67	21,587
513,86	23,676
514,06	24,690
514,26	23,179
514,46	25,166
514,66	21,564
514,86	23,884
515,06	29,111
515,26	25,667
515,45	24,669
515,65	23,236
515,85	26,274
516,05	21,940
516,25	21,961
516,45	25,467
516,65	21,010
516,84	21,596
517,04	25,718
517,24	23,834
517,44	23,971
517,64	25,757
517,84	25,111
518,04	23,690
518,23	25,857
518,43	26,389
518,63	23,652
518,83	21,825
519,03	24,914
519,23	22,034
519,42	24,825
519,62	23,197
519,82	22,376
520,02	22,246
520,22	23,922
520,42	21,840
520,61	25,089
520,81	23,610
521,01	26,086
521,21	22,726
521,41	24,038
521,61	26,145
521,80	23,647
522,00	21,115
522,20	26,187
522,40	24,955
522,60	21,822
522,79	22,034
522,99	27,088
523,19	20,741
523,39	21,103
523,59	22,630
523,78	25,779
523,98	21,131
524,18	25,786
524,38	20,013
524,58	23,548
524,77	26,145
524,97	23,041
525,17	21,550
525,37	23,933
525,57	27,437
525,76	24,228
525,96	29,678
526,16	22,535
526,36	23,375
526,56	23,306
526,75	25,842
526,95	25,826
527,15	23,282
527,35	25,884
527,55	23,240
527,74	22,230
527,94	19,569
528,14	22,028
528,34	23,280
528,53	23,088
528,73	26,369
528,93	24,530
529,13	21,109
529,32	24,047
529,52	23,525
529,72	23,133
529,92	23,440
530,12	24,355
530,31	24,407
530,51	26,134
530,71	21,903
530,91	28,558
531,10	19,093
531,30	24,802
531,50	21,066
531,70	24,235
531,89	26,864
532,09	22,819
532,29	24,832
532,49	24,409
532,68	21,649
532,88	20,441
533,08	21,824
533,28	23,943
533,47	22,565
533,67	24,763
533,87	22,017
534,06	31,563
534,26	20,946
534,46	21,607
534,66	24,302
534,85	24,848
535,05	21,114
535,25	20,885
535,45	21,028
535,64	26,646
535,84	25,987
536,04	20,877
536,23	24,097
536,43	26,075
536,63	23,496
536,83	25,745
537,02	24,206
537,22	20,088
537,42	24,489
537,61	24,129
537,81	22,476
538,01	23,257
538,20	21,859
538,40	20,404
538,60	21,859
538,80	20,923
538,99	22,695
539,19	21,598
539,39	20,854
539,58	23,634
539,78	19,319
539,98	20,136
540,17	18,158
540,37	22,233
540,57	18,412
540,76	17,838
540,96	15,325
541,16	17,605
541,36	16,970
541,55	14,869
541,75	14,001
541,95	17,726
542,14	12,558
542,34	13,261
542,54	11,898
542,73	18,365
542,93	12,193
543,13	15,021
543,32	12,084
543,52	17,090
543,72	12,185
543,91	15,784
544,11	13,554
544,31	11,103
544,50	14,369
544,70	16,726
544,89	15,576
545,09	16,226
545,29	14,800
545,48	17,383
545,68	12,973
545,88	18,436
546,07	15,370
546,27	15,495
546,47	18,784
546,66	19,432
546,86	17,178
547,06	18,258
547,25	17,407
547,45	19,515
547,64	20,745
547,84	21,678
548,04	20,655
548,23	24,819
548,43	21,509
548,63	19,990
548,82	22,608
549,02	24,222
549,21	20,188
549,41	18,909
549,61	21,580
549,80	20,130
550,00	20,881
550,20	21,573
550,39	22,838
550,59	20,866
550,78	21,960
550,98	21,359
551,18	23,525
551,37	22,697
551,57	22,271
551,76	22,086
551,96	22,352
552,16	21,839
552,35	20,834
552,55	19,175
552,74	20,461
552,94	24,483
553,14	19,806
553,33	22,955
553,53	23,237
553,72	21,685
553,92	24,062
554,12	21,747
554,31	24,255
554,51	22,869
554,70	20,046
554,90	22,429
555,09	26,079
555,29	20,813
555,49	24,137
555,68	26,132
555,88	21,129
556,07	21,893
556,27	26,841
556,46	22,496
556,66	21,780
556,86	27,605
557,05	23,668
557,25	23,999
557,44	22,317
557,64	20,335
557,83	24,094
558,03	24,157
558,22	20,418
558,42	22,755
558,62	23,872
558,81	25,499
559,01	24,044
559,20	23,414
559,40	22,970
559,59	22,927
559,79	22,419
559,98	24,161
560,18	23,559
560,37	23,895
560,57	22,834
560,76	21,113
560,96	21,146
561,16	21,934
561,35	21,878
561,55	23,261
561,74	23,808
561,94	25,543
562,13	23,062
562,33	24,891
562,52	23,549
562,72	21,665
562,91	23,370
563,11	24,611
563,30	24,830
563,50	22,093
563,69	21,034
563,89	19,951
564,08	23,978
564,28	21,148
564,47	22,612
564,67	22,424
564,86	22,703
565,06	22,815
565,25	21,295
565,45	21,704
565,64	25,965
565,84	23,000
566,03	20,496
566,23	23,602
566,42	24,411
566,62	23,389
566,81	21,575
567,01	21,628
567,20	22,971
567,40	22,021
567,59	21,346
567,79	25,888
567,98	26,646
568,18	22,326
568,37	25,482
568,57	22,984
568,76	23,322
568,96	23,760
569,15	20,313
569,35	23,676
569,54	26,983
569,73	24,077
569,93	22,190
570,12	22,823
570,32	24,765
570,51	23,199
570,71	24,641
570,90	23,775
571,10	23,048
571,29	23,203
571,49	22,679
571,68	24,955
571,87	25,702
572,07	25,397
572,26	19,393
572,46	22,972
572,65	22,966
572,85	21,837
573,04	24,759
573,24	22,574
573,43	26,068
573,62	23,724
573,82	24,295
574,01	21,930
574,21	20,895
574,40	22,483
574,60	19,833
574,79	26,298
574,98	23,443
575,18	22,915
575,37	20,553
575,57	23,259
575,76	23,587
575,96	22,946
576,15	23,658
576,34	21,919
576,54	22,709
576,73	23,123
576,93	21,656
577,12	23,451
577,31	24,070
577,51	21,129
577,70	23,246
577,90	22,643
578,09	23,186
578,28	22,511
578,48	22,687
578,67	23,622
578,87	22,647
579,06	20,926
579,25	22,250
579,45	23,881
579,64	21,297
579,84	21,436
580,03	22,096
580,22	23,148
580,42	21,842
580,61	22,641
580,81	22,051
581,00	22,038
581,19	24,466
581,39	21,383
581,58	21,690
581,77	21,868
581,97	23,737
582,16	22,328
582,35	21,130
582,55	21,612
582,74	23,975
582,94	23,433
583,13	22,023
583,32	22,938
583,52	22,924
583,71	22,342
583,90	21,662
584,10	23,636
584,29	24,020
584,48	20,030
584,68	20,456
584,87	23,692
585,06	21,968
585,26	20,927
585,45	21,564
585,65	23,976
585,84	21,230
586,03	22,115
586,23	21,303
586,42	22,289
586,61	26,914
586,81	23,599
587,00	20,449
587,19	22,131
587,39	23,447
587,58	21,858
587,77	20,891
587,97	19,846
588,16	22,708
588,35	20,919
588,54	22,404
588,74	23,495
588,93	25,160
589,12	23,027
589,32	20,466
589,51	21,999
589,70	20,174
589,90	20,475
590,09	20,460
590,28	24,599
590,48	20,835
590,67	22,828
590,86	22,410
591,06	21,281
591,25	23,381
591,44	22,172
591,63	22,404
591,83	22,018
592,02	22,139
592,21	21,750
592,41	22,803
592,60	24,193
592,79	22,819
592,98	23,122
593,18	21,244
593,37	22,501
593,56	22,522
593,76	22,773
593,95	21,806
594,14	21,865
594,33	24,481
594,53	23,001
594,72	21,018
594,91	24,284
595,10	22,932
595,30	22,165
595,49	21,504
595,68	23,640
595,88	24,220
596,07	24,760
596,26	24,485
596,45	22,366
596,65	21,000
596,84	21,959
597,03	23,061
597,22	21,953
597,42	24,805
597,61	21,654
597,80	23,895
597,99	21,854
598,19	23,812
598,38	22,010
598,57	21,393
598,76	24,025
598,95	22,343
599,15	23,699
599,34	21,025
599,53	21,344
599,72	21,295
599,92	24,370
600,11	23,877
600,30	21,969
600,49	25,202
600,69	22,474
600,88	22,476
601,07	21,695
601,26	20,407
601,45	21,544
601,65	21,254
601,84	23,407
602,03	22,436
602,22	23,641
602,42	24,379
602,61	21,046
602,80	21,840
602,99	21,539
603,18	21,404
603,38	24,245
603,57	21,627
603,76	20,664
603,95	21,116
604,14	24,239
604,34	20,705
604,53	20,640
604,72	22,163
604,91	23,137
605,10	22,549
605,29	22,871
605,49	21,287
605,68	22,509
605,87	26,334
606,06	21,538
606,25	21,696
606,45	23,306
606,64	22,956
606,83	23,235
607,02	21,451
607,21	23,619
607,40	22,315
607,60	20,686
607,79	20,859
607,98	20,373
608,17	21,693
608,36	19,344
608,55	21,565
608,75	20,667
608,94	21,737
609,13	18,304
609,32	17,275
609,51	19,306
609,70	19,046
609,89	18,084
610,09	16,331
610,28	17,863
610,47	17,101
610,66	16,775
610,85	15,852
611,04	18,797
611,23	16,503
611,43	14,990
611,62	16,529
611,81	16,409
612,00	17,981
612,19	16,607
612,38	17,954
612,57	18,760
612,77	17,771
612,96	17,377
613,15	18,829
613,34	20,307
613,53	19,355
613,72	19,248
613,91	18,122
614,10	20,800
614,29	21,458
614,49	20,093
614,68	19,627
614,87	19,805
615,06	22,121
615,25	20,482
615,44	21,136
615,63	21,667
615,82	20,468
616,01	21,165
616,21	19,550
616,40	22,081
616,59	23,094
616,78	20,472
616,97	21,599
617,16	20,397
617,35	21,471
617,54	20,837
617,73	21,754
617,92	21,533
618,11	22,913
618,31	21,653
618,50	22,577
618,69	20,820
618,88	20,252
619,07	18,147
619,26	18,646
619,45	19,609
619,64	18,719
619,83	20,836
620,02	20,912
620,21	22,740
620,40	21,677
620,59	22,299
620,78	19,460
620,97	20,700
621,17	23,161
621,36	19,462
621,55	19,883
621,74	21,740
621,93	21,764
622,12	20,919
622,31	19,433
622,50	21,186
622,69	23,365
622,88	22,276
623,07	23,735
623,26	21,585
623,45	22,540
623,64	21,144
623,83	21,248
624,02	20,718
624,21	21,672
624,40	21,086
624,59	18,545
624,78	20,703
624,97	23,686
625,16	19,943
625,35	18,874
625,54	19,686
625,73	19,852
625,92	22,449
626,12	24,256
626,31	22,298
626,50	21,869
626,69	20,602
626,88	20,785
627,07	22,279
627,26	19,857
627,45	22,626
627,64	20,168
627,83	22,648
628,02	19,462
628,21	21,321
628,40	21,531
628,59	22,650
628,78	19,911
628,97	21,185
629,16	20,257
629,35	20,271
629,54	22,040
629,73	21,875
629,92	20,122
630,10	21,885
630,29	21,869
630,48	19,094
630,67	19,537
630,86	22,363
631,05	19,995
631,24	21,776
631,43	18,665
631,62	19,790
631,81	19,504
632,00	20,179
632,19	18,818
632,38	21,261
632,57	22,854
632,76	18,634
632,95	20,555
633,14	22,454
633,33	22,318
633,52	22,053
633,71	20,273
633,90	18,968
634,09	20,267
634,28	20,999
634,47	21,091
634,66	21,426
634,85	21,202
635,04	24,060
635,22	21,069
635,41	20,596
635,60	23,498
635,79	21,965
635,98	20,841
636,17	21,327
636,36	19,658
636,55	18,975
636,74	19,132
636,93	20,717
637,12	21,420
637,31	19,085
637,50	20,698
637,69	21,257
637,87	21,998
638,06	20,043
638,25	19,362
638,44	20,967
638,63	19,614
638,82	20,950
639,01	20,480
639,20	20,271
639,39	22,587
639,58	21,547
639,77	20,804
639,95	20,377
640,14	22,463
640,33	22,006
640,52	21,806
640,71	23,949
640,90	20,246
641,09	22,340
641,28	19,445
641,47	21,419
641,66	21,904
641,84	23,112
642,03	17,906
642,22	20,874
642,41	24,564
642,60	20,772
642,79	21,226
642,98	21,814
643,17	20,994
643,35	19,292
643,54	20,340
643,73	20,661
643,92	20,854
644,11	20,543
644,30	21,380
644,49	21,765
644,67	20,703
644,86	20,085
645,05	19,989
645,24	20,010
645,43	20,973
645,62	21,313
645,81	19,135
645,99	19,542
646,18	22,987
646,37	22,085
646,56	20,500
646,75	20,656
646,94	22,050
647,13	19,196
647,31	20,819
647,50	19,508
647,69	23,084
647,88	20,643
648,07	21,527
648,26	24,312
648,44	20,268
648,63	21,681
648,82	20,101
649,01	21,488
649,20	18,837
649,38	22,245
649,57	21,288
649,76	19,283
649,95	21,949
650,14	19,291
650,33	21,026
650,51	20,656
650,70	21,533
650,89	22,121
651,08	19,936
651,27	21,795
651,45	19,648
651,64	20,160
651,83	20,194
652,02	20,062
652,21	20,209
652,39	21,845
652,58	22,314
652,77	24,074
652,96	20,884
653,15	23,246
653,33	21,395
653,52	20,943
653,71	23,182
653,90	22,611
654,09	21,370
654,27	20,924
654,46	22,414
654,65	22,350
654,84	21,070
655,02	23,672
655,21	21,662
655,40	23,167
655,59	22,295
655,77	23,041
655,96	22,082
656,15	23,222
656,34	21,988
656,53	22,790
656,71	22,612
656,90	23,959
657,09	22,208
657,28	22,636
657,46	20,708
657,65	20,296
657,84	21,264
658,03	21,663
658,21	22,907
658,40	20,539
658,59	20,213
658,78	21,543
658,96	19,422
659,15	21,953
659,34	19,500
659,52	20,605
659,71	21,521
659,90	21,075
660,09	19,933
660,27	20,926
660,46	24,115
660,65	22,031
660,84	21,107
661,02	21,435
661,21	23,309
661,40	23,006
661,58	21,008
661,77	22,051
661,96	19,147
662,15	21,308
662,33	21,324
662,52	20,748
662,71	20,249
662,89	19,681
663,08	20,336
663,27	21,719
663,45	20,125
663,64	21,584
663,83	20,125
664,02	18,762
664,20	22,514
664,39	19,340
664,58	20,921
664,76	20,199
664,95	20,796
665,14	22,334
665,32	20,436
665,51	22,063
665,70	21,488
665,88	22,850
666,07	20,387
666,26	23,844
666,44	22,992
666,63	19,331
666,82	20,075
667,00	20,603
667,19	19,931
667,38	21,282
667,56	21,002
667,75	21,533
667,94	18,982
668,12	21,358
668,31	22,652
668,50	22,145
668,68	22,426
668,87	20,921
669,06	20,446
669,24	23,558
669,43	21,911
669,62	21,074
669,80	19,247
669,99	19,726
670,18	21,044
670,36	19,300
670,55	22,325
670,74	19,764
670,92	17,791
671,11	22,637
671,29	18,472
671,48	19,578
671,67	20,892
671,85	20,891
672,04	21,312
672,23	20,295
672,41	19,327
672,60	20,864
672,78	20,194
672,97	20,542
673,16	21,658
673,34	21,138
673,53	19,245
673,71	21,300
673,90	22,390
674,09	20,671
674,27	20,364
674,46	20,134
674,64	19,276
674,83	21,119
675,02	19,077
675,20	20,889
675,39	20,254
675,57	20,486
675,76	21,566
675,95	23,391
676,13	20,042
676,32	20,003
676,50	20,643
676,69	19,162
676,88	20,305
677,06	19,212
677,25	21,751
677,43	22,776
677,62	22,176
677,80	20,942
677,99	20,665
678,18	22,969
678,36	23,018
678,55	19,905
678,73	18,310
678,92	20,599
679,10	20,281
679,29	21,190
679,48	19,096
679,66	21,269
679,85	20,642
680,03	21,235
680,22	18,929
680,40	20,124
680,59	20,796
680,77	19,226
680,96	21,778
681,15	21,313
681,33	23,020
681,52	20,886
681,70	20,773
681,89	23,586
682,07	19,866
682,26	19,802
682,44	22,019
682,63	19,737
682,81	22,657
683,00	20,256
683,18	19,316
683,37	21,085
683,55	19,459
683,74	22,439
683,92	26,422
684,11	20,764
684,29	20,314
684,48	20,849
684,67	20,619
684,85	20,100
685,04	20,686
685,22	21,330
685,41	20,330
685,59	20,402
685,78	18,790
685,96	20,078
686,15	19,111
686,33	19,725
686,52	21,082
686,70	20,711
686,89	20,711
687,07	21,098
687,26	21,009
687,44	20,593
687,62	20,239
687,81	20,686
687,99	21,962
688,18	20,567
688,36	22,007
688,55	22,869
688,73	20,708
688,92	19,503
689,10	20,166
689,29	21,786
689,47	22,979
689,66	20,011
689,84	19,804
690,03	24,860
690,21	19,635
690,40	19,630
690,58	19,314
690,76	18,952
690,95	19,931
691,13	18,054
691,32	21,761
691,50	19,890
691,69	21,809
691,87	21,333
692,06	20,206
692,24	20,658
692,43	20,372
692,61	20,737
692,79	20,308
692,98	18,902
693,16	22,410
693,35	19,502
693,53	22,509
693,72	21,001
693,90	23,425
694,08	20,454
694,27	20,486
694,45	20,863
694,64	22,512
694,82	19,849
695,01	21,388
695,19	18,552
695,37	20,993
695,56	19,824
695,74	20,760
695,93	20,065
696,11	19,105
696,29	21,365
696,48	22,539
696,66	21,930
696,85	19,026
697,03	19,656
697,21	20,981
697,40	22,678
697,58	20,894
697,77	21,995
697,95	19,922
698,13	20,240
698,32	19,966
698,50	19,045
698,69	19,940
698,87	22,627
699,05	22,978
699,24	19,222
699,42	20,598
699,60	18,121
699,79	19,703
699,97	19,064
700,16	18,192
700,34	24,663
700,52	19,908
700,71	20,106
700,89	18,488
701,07	18,196
701,26	20,398
701,44	19,685
701,63	19,824
701,81	20,946
701,99	20,004
702,18	20,507
702,36	21,501
702,54	22,302
702,73	20,498
702,91	19,555
703,09	18,720
703,28	18,224
703,46	19,432
703,64	20,630
703,83	19,879
704,01	19,980
704,19	20,323
704,38	18,687
704,56	20,306
704,74	22,183
704,93	18,668
705,11	19,045
705,29	20,312
705,48	23,580
705,66	21,473
705,84	20,073
706,03	18,286
706,21	19,390
706,39	19,397
706,58	19,923
706,76	20,593
706,94	21,246
707,12	20,682
707,31	18,670
707,49	20,828
707,67	18,651
707,86	23,290
708,04	20,973
708,22	19,222
708,41	21,553
708,59	19,158
708,77	21,290
708,95	20,507
709,14	23,171
709,32	21,093
709,50	19,437
709,69	21,831
709,87	20,387
710,05	19,219
710,23	19,213
710,42	18,835
710,60	20,620
710,78	23,010
710,97	19,931
711,15	20,309
711,33	20,122
711,51	20,207
711,70	19,287
711,88	20,519
712,06	21,510
712,24	21,656
712,43	20,833
712,61	19,914
712,79	20,194
712,97	19,563
713,16	20,131
713,34	18,906
713,52	20,669
713,70	19,116
713,89	17,881
714,07	19,143
714,25	21,212
714,43	21,492
714,62	18,561
714,80	18,604
714,98	18,533
715,16	19,197
715,35	19,052
715,53	19,827
715,71	23,374
715,89	22,652
716,07	20,621
716,26	19,707
716,44	22,330
716,62	21,259
716,80	20,707
716,99	19,392
717,17	23,121
717,35	20,442
717,53	20,365
717,71	19,454
717,90	21,475
718,08	20,628
718,26	20,384
718,44	21,689
718,62	21,485
718,81	21,122
718,99	18,227
719,17	18,576
719,35	20,415
719,53	19,375
719,72	18,375
719,90	19,162
720,08	18,390
720,26	22,931
720,44	17,703
720,62	20,564
720,81	21,965
720,99	22,090
721,17	20,573
721,35	21,366
721,53	19,142
721,72	22,382
721,90	19,530
722,08	20,537
722,26	21,441
722,44	21,294
722,62	18,724
722,81	18,417
722,99	20,740
723,17	20,643
723,35	20,272
723,53	21,452
723,71	20,738
723,89	25,039
724,08	21,940
724,26	19,815
724,44	20,028
724,62	22,468
724,80	16,880
724,98	20,603
725,16	23,128
725,35	21,302
725,53	20,007
725,71	19,853
725,89	19,496
726,07	24,652
726,25	22,083
726,43	18,395
726,61	20,949
726,80	21,874
726,98	19,828
727,16	19,271
727,34	20,004
727,52	19,615
727,70	20,235
727,88	19,803
728,06	17,987
728,25	19,981
728,43	19,539
728,61	19,715
728,79	20,939
728,97	23,077
729,15	19,328
729,33	22,090
729,51	22,461
729,69	21,622
729,87	20,091
730,06	22,796
730,24	23,009
730,42	22,616
730,60	20,211
730,78	20,934
730,96	21,272
731,14	21,260
731,32	19,823
731,50	19,721
731,68	18,121
731,86	22,764
732,04	20,018
732,22	20,094
732,41	26,763
732,59	21,179
732,77	22,442
732,95	20,490
733,13	22,243
733,31	21,950
733,49	18,354
733,67	20,636
733,85	21,798
734,03	18,819
734,21	19,740
734,39	20,286
734,57	21,833
734,75	22,673
734,93	19,874
735,11	20,801
735,29	19,264
735,47	21,466
735,65	19,295
735,84	19,719
736,02	20,219
736,20	24,254
736,38	19,470
736,56	21,179
736,74	20,285
736,92	20,017
737,10	20,212
737,28	22,322
737,46	20,515
737,64	21,025
737,82	19,761
738,00	21,647
738,18	21,399
738,36	21,708
738,54	20,123
738,72	20,633
738,90	21,635
739,08	21,855
739,26	19,958
739,44	21,294
739,62	25,193
739,80	20,143
739,98	20,482
740,16	21,135
740,34	20,226
740,52	23,626
740,70	19,990
740,88	21,024
741,06	21,313
741,24	20,689
741,42	19,043
741,60	19,448
741,78	21,267
741,96	21,902
742,14	21,401
742,32	20,666
742,50	19,669
742,68	21,270
742,86	21,748
743,04	18,339
743,21	22,827
743,39	19,844
743,57	20,728
743,75	21,725
743,93	19,139
744,11	18,453
744,29	21,105
744,47	19,361
744,65	20,529
744,83	20,094
745,01	19,002
745,19	18,922
745,37	25,385
745,55	22,240
745,73	22,842
745,91	18,547
746,09	19,327
746,27	19,770
746,45	19,804
746,62	20,608
746,80	19,795
746,98	19,908
747,16	17,833
747,34	20,255
747,52	19,478
747,70	22,706
747,88	22,335
748,06	22,515
748,24	21,950
748,42	22,276
748,60	19,937
748,78	18,156
748,95	23,548
749,13	24,241
749,31	19,092
749,49	20,916
749,67	21,052
749,85	22,221
750,03	20,811
750,21	21,705
750,39	21,596
750,57	17,277
750,74	22,885
750,92	21,137
751,10	20,799
751,28	19,957
751,46	21,119
751,64	21,108
751,82	22,106
752,00	21,183
752,17	22,163
752,35	23,062
752,53	21,229
752,71	20,278
752,89	20,491
753,07	19,947
753,25	20,566
753,43	17,910
753,60	22,333
753,78	22,412
753,96	21,473
754,14	22,738
754,32	22,890
754,50	21,800
754,68	23,231
754,85	19,505
755,03	22,141
755,21	23,608
755,39	22,723
755,57	21,460
755,75	21,305
755,92	21,580
756,10	21,387
756,28	21,246
756,46	20,120
756,64	21,723
756,82	22,304
756,99	20,945
757,17	19,522
757,35	19,148
757,53	26,326
757,71	23,513
757,89	19,195
758,06	22,817
758,24	21,313
758,42	21,739
758,60	18,261
758,78	20,792
758,95	22,845
759,13	22,164
759,31	21,750
759,49	19,890
759,67	21,120
759,84	18,232
760,02	22,133
760,20	19,567
760,38	22,220
760,56	18,622
760,73	20,101
760,91	19,385
761,09	23,942
761,27	19,792
761,45	19,782
761,62	17,249
761,80	19,607
761,98	21,885
762,16	23,138
762,33	20,141
762,51	22,804
762,69	19,741
762,87	20,740
763,05	21,756
763,22	20,012
763,40	20,879
763,58	20,852
763,76	18,787
763,93	22,754
764,11	22,604
764,29	20,205
764,47	20,622
764,64	23,131
764,82	22,983
765,00	20,735
765,18	18,440
765,35	19,420
765,53	20,491
765,71	22,932
765,89	21,899
766,06	19,301
766,24	21,234
766,42	20,597
766,60	19,507
766,77	18,231
766,95	19,992
767,13	21,666
767,30	20,465
767,48	19,742
767,66	19,509
767,84	19,079
768,01	20,530
768,19	21,948
768,37	20,654
768,54	20,380
768,72	20,815
768,90	19,989
769,08	20,523
769,25	19,412
769,43	20,361
769,61	19,726
769,78	22,908
769,96	18,404
770,14	20,967
770,31	23,621
770,49	24,038
770,67	18,708
770,85	20,306
771,02	20,908
771,20	19,836
771,38	21,744
771,55	20,248
771,73	18,179
771,91	22,955
772,08	22,036
772,26	20,876
772,44	21,900
772,61	21,388
772,79	20,454
772,97	20,397
773,14	18,085
773,32	21,587
773,50	18,984
773,67	21,122
773,85	21,504
774,03	22,774
774,20	21,337
774,38	21,253
774,56	23,018
774,73	17,837
774,91	18,967
775,09	20,777
775,26	23,758
775,44	21,726
775,61	20,584
775,79	20,353
775,97	21,134
776,14	20,087
776,32	20,290
776,50	22,918
776,67	22,826
776,85	21,751
777,03	17,283
777,20	22,371
777,38	23,365
777,55	21,291
777,73	21,768
777,91	18,927
778,08	21,341
778,26	18,270
778,43	22,224
778,61	19,700
778,79	19,882
778,96	22,412
779,14	20,738
779,32	21,294
779,49	18,190
779,67	26,245
779,84	22,338
780,02	21,845
780,20	19,910
780,37	21,263
780,55	16,322
780,72	21,330
780,90	21,303
781,07	22,099
781,25	23,450
781,43	21,494
781,60	20,304
781,78	21,705
781,95	22,345
782,13	19,907
782,30	22,276
782,48	21,585
782,66	19,142
782,83	21,787
783,01	28,104
783,18	23,953
783,36	22,989
783,53	22,828
783,71	18,621
783,89	20,797
784,06	22,379
784,24	20,562
784,41	20,105
784,59	17,538
784,76	26,391
784,94	19,787
785,11	22,961
785,29	22,031
785,46	20,980
785,64	19,213
785,82	23,823
785,99	23,606
786,17	23,585
786,34	17,413
786,52	24,827
786,69	22,833
786,87	21,253
787,04	20,393
787,22	20,690
787,39	21,650
787,57	24,051
787,74	18,915
787,92	25,502
788,09	22,683
788,27	22,004
788,44	19,831
788,62	24,605
788,79	19,650
788,97	22,209
789,14	21,711
789,32	21,707
789,49	19,919
789,67	21,321
789,84	19,785
790,02	23,052
790,19	16,159
790,37	23,904
790,54	21,443
790,72	28,409
790,89	23,684
791,07	25,326
791,24	18,218
791,42	22,912
791,59	25,562
791,77	19,610
791,94	21,671
792,12	20,169
792,29	21,324
792,47	21,987
792,64	21,337
792,81	23,365
792,99	20,135
793,16	20,804
793,34	20,053
793,51	22,194
793,69	24,048
793,86	20,114
794,04	22,479
794,21	23,516
794,39	19,313
794,56	20,552
794,73	24,432
794,91	25,451
795,08	20,557
795,26	20,903
795,43	18,123
795,61	25,997
795,78	21,695
795,95	24,674
796,13	23,868
796,30	21,182
796,48	19,774
796,65	18,603
796,83	23,066
797,00	23,230
797,17	20,721
797,35	19,995
797,52	21,097
797,70	22,501
797,87	23,109
798,04	25,007
798,22	21,037
798,39	23,096
798,57	19,489
798,74	22,293
798,91	19,270
799,09	23,040
799,26	22,317
799,44	24,185
799,61	18,268
799,78	21,084
799,96	26,909
800,13	19,806
800,31	25,429
800,48	25,439
800,65	26,092
800,83	24,296
801,00	21,711
801,17	23,288
801,35	23,797
801,52	23,547
801,70	25,730
801,87	21,159
802,04	25,414
802,22	17,721
802,39	21,798
802,56	26,300
802,74	24,604
802,91	20,602
803,08	20,174
803,26	23,622
803,43	27,869
803,61	17,878
803,78	21,505
803,95	25,326
804,13	23,740
804,30	18,846
804,47	26,315
804,65	23,625
804,82	22,433
804,99	25,371
805,17	19,698
805,34	29,354
805,51	26,293
805,69	20,568
805,86	25,798
806,03	28,716
806,21	24,156
806,38	25,546
806,55	20,556
806,72	26,790
806,90	28,072
807,07	24,167
807,24	20,566
807,42	18,958
807,59	23,609
807,76	20,717
807,94	22,207
808,11	27,829
808,28	27,297
808,45	23,655
808,63	19,861
808,80	30,823
808,97	20,401
809,15	23,225
809,32	22,139
809,49	25,233
809,67	27,150
809,84	26,873
810,01	27,777
810,18	34,364
810,36	28,729
810,53	21,886
810,70	24,643
810,87	23,612
811,05	25,943
811,22	22,920
811,39	22,880
811,57	26,217
811,74	23,405
811,91	25,581
812,08	22,640
812,26	22,165
812,43	18,848
812,60	27,954
812,77	24,731
812,95	25,806
813,12	21,553
813,29	21,432
813,46	25,798
813,64	26,248
813,81	27,038
813,98	23,692
814,15	27,265
814,32	31,344
814,50	22,544
814,67	26,330
814,84	28,407
815,01	22,304
815,19	19,235
815,36	25,828
815,53	21,933
815,70	23,577
815,87	28,950
816,05	24,121
816,22	26,522
816,39	29,370
816,56	28,985
816,74	28,536
816,91	24,783
817,08	31,491
817,25	33,156
817,42	26,351
817,60	27,093
817,77	29,059
817,94	21,190
818,11	24,683
818,28	16,529
818,45	27,569
818,63	22,370
818,80	27,825
818,97	22,528
819,14	30,029
819,31	29,596
819,49	25,027
819,66	21,286
819,83	29,654
820,00	29,264
820,17	23,562
820,34	24,137
820,52	28,032
820,69	27,318
820,86	21,986
821,03	27,158
821,20	28,154
821,37	29,387
821,55	26,788
821,72	20,587
821,89	27,620
822,06	30,750
822,23	20,093
822,40	22,404
822,57	29,998
822,75	28,465
822,92	18,903
823,09	28,448
823,26	27,309
823,43	31,314
823,60	27,351
823,77	25,073
823,94	28,224
824,12	27,617
824,29	16,885
824,46	29,013
824,63	40,531
824,80	30,896
824,97	27,199
825,14	25,102
825,31	24,394
825,49	26,304
825,66	10,747
825,83	25,029
826,00	28,583
826,17	35,016
826,34	27,742
826,51	25,530
826,68	25,904
826,85	23,915
827,02	17,756
827,20	26,622
827,37	20,968
827,54	26,851
827,71	28,047
827,88	28,715
828,05	26,351
828,22	30,324
828,39	33,059
828,56	26,376
828,73	27,955
828,90	24,194
829,07	26,735
829,25	22,928
829,42	25,706
829,59	22,748
829,76	24,337
829,93	24,890
830,10	26,911
830,27	22,219
830,44	24,336
830,61	16,457
830,78	36,424
830,95	27,986
831,12	25,714
831,29	24,058
831,46	18,913
831,63	23,931
831,80	27,941
831,97	21,897
832,14	32,495
832,31	33,021
832,48	19,146
832,65	23,532
832,83	19,139
833,00	29,434
833,17	25,658
833,34	26,404
833,51	29,730
833,68	34,872
833,85	24,612
834,02	21,209
834,19	31,126
834,36	28,843
834,53	24,661
834,70	19,383
834,87	42,195
835,04	25,242
835,21	23,274
835,38	28,084
835,55	16,087
835,72	37,515
835,89	23,337
836,06	22,896
836,23	43,613
836,40	23,797
836,57	19,476
836,74	27,260
836,91	20,824
837,08	33,267
837,25	22,439
837,42	26,809
837,59	19,491
837,76	29,126
837,93	26,059
838,09	24,216
838,26	23,122
838,43	40,480
838,60	35,218
838,77	30,541
838,94	26,896
839,11	42,473
839,28	31,885
839,45	25,729
839,62	27,086
839,79	27,919
839,96	26,252
840,13	26,515
840,30	22,458
840,47	33,040
840,64	39,758
840,81	30,203
840,98	24,462
841,15	42,335
841,32	25,623
841,48	39,157
841,65	32,890
841,82	27,653
841,99	28,155
842,16	29,906
842,33	29,512
842,50	34,142
842,67	18,282
842,84	27,992
843,01	34,920
843,18	19,558
843,35	35,488
843,52	25,814
843,68	28,914
843,85	26,733
844,02	15,111
844,19	20,306
844,36	31,638
844,53	20,627
844,70	16,445
844,87	41,208
845,04	32,352
845,21	15,857
845,37	39,442
845,54	21,042
845,71	30,585
845,88	50,634
846,05	28,413
846,22	13,103
846,39	26,599
846,56	37,694
846,72	14,486
846,89	27,363
847,06	41,028
847,23	34,247
847,40	18,282
847,57	18,919
847,74	23,170
847,90	41,719
848,07	28,809
848,24	27,942
848,41	38,738
848,58	40,711
848,75	29,299
848,92	18,899
849,08	25,990
849,25	18,906
849,42	16,800
849,59	30,498
849,76	22,704
849,93	42,473
850,09	35,981
850,26	11,183
850,43	44,414
850,60	17,078
850,77	17,028
850,94	27,787
851,10	23,342
851,27	18,108
851,44	32,053
851,61	27,222
851,78	46,253
851,95	36,578
852,11	27,009
852,28	15,822
852,45	42,724
852,62	44,036
852,79	35,948
852,95	31,382
853,12	32,385
853,29	31,121
853,46	24,074
853,63	30,753
853,79	23,214
853,96	25,184
854,13	34,115
854,30	31,333
854,46	50,167
854,63	26,738
854,80	34,945
854,97	27,287
855,14	54,432
855,30	43,255
855,47	36,505
855,64	40,896
855,81	25,474
855,97	48,672
856,14	41,846
856,31	10,432
856,48	44,980
856,65	51,261
856,81	30,340
856,98	18,069
857,15	14,248
857,32	46,091
857,48	25,463
857,65	46,418
857,82	46,090
857,99	35,441
858,15	36,893
858,32	32,789
858,49	12,487
858,65	50,357
858,82	28,357
858,99	35,612
859,16	47,929
859,32	39,072
859,49	43,232
859,66	50,257
859,83	46,147
859,99	24,355
860,16	28,161
860,33	37,195
860,49	40,164
860,66	34,845
860,83	25,568
861,00	37,390
861,16	59,176
861,33	58,457
861,50	11,549
861,66	43,404
861,83	45,627
862,00	28,135
862,16	19,611
862,33	32,385
862,50	59,703
862,67	36,892
862,83	38,537
863,00	31,726
863,17	64,468
863,33	24,643
863,50	8,926
863,67	40,919
863,83	37,061
864,00	52,798
864,17	31,299
864,33	20,706
864,50	19,763
864,67	50,371
864,83	32,224
865,00	44,247
865,17	19,181
865,33	54,620
865,50	19,371
865,67	26,929
865,83	35,728
866,00	62,934
866,17	43,924
866,33	41,578
866,50	36,332
866,66	27,126
866,83	33,907
867,00	50,150
867,16	65,620
867,33	72,803
867,50	32,424
867,66	41,944
867,83	42,240
868,00	36,491
868,16	30,179
868,33	35,291
868,49	16,406
868,66	68,744
868,83	41,286
868,99	46,655
869,16	87,785
869,32	45,911
869,49	54,607
869,66	25,305
869,82	60,460
869,99	54,300
870,15	26,382
870,32	44,714
870,49	90,082
870,65	91,187
870,82	57,797
870,98	38,641
871,15	96,437
871,32	66,894
871,48	39,917
871,65	25,455
871,81	47,459
871,98	34,681
872,15	24,270
872,31	26,729
872,48	69,802
872,64	46,127
872,81	24,074
872,97	35,452
873,14	85,214
873,31	56,638
873,47	47,163
873,64	60,196
873,80	66,656
873,97	85,055
874,13	52,669
874,30	39,037
874,46	60,567
874,63	36,640
874,80	9,552
874,96	46,419
875,13	75,939
875,29	34,414
875,46	45,216
875,62	28,288
875,79	82,214
875,95	57,293
876,12	14,979
876,28	-14,660
876,45	104,617
876,61	46,043
876,78	39,434
876,94	6,738
877,11	70,673
877,27	138,532
877,44	40,726
877,60	53,535
877,77	70,807
877,94	136,577
878,10	31,940
878,27	81,934
878,43	141,426
878,60	44,777
878,76	80,018
878,93	89,106
879,09	52,959
879,26	96,870
879,42	63,413
879,58	43,356
879,75	82,449
879,91	89,874
880,08	37,447
880,24	28,688
880,41	-3,843
880,57	53,200
880,74	107,959
880,90	51,105
881,07	78,905
881,23	92,360
881,40	50,082
881,56	23,025
881,73	137,839
881,89	67,422
882,06	5,267
882,22	104,399
882,38	119,534
882,55	141,707
882,71	93,787
882,88	53,797
883,04	99,092
883,21	99,305
883,37	134,609
883,54	52,660
883,70	219,935
883,86	128,542
884,03	114,941
884,19	52,388
884,36	98,423
884,52	135,370
884,69	108,944
884,85	12,291
885,01	75,985
885,18	110,236
885,34	63,874
885,51	35,952
885,67	64,168
>>>>> Data<<<<< Espectral Procesado Extremo
