Fichero De Datos De SpectraSuite
++++++++++++++++++++++++++++++++++++
Fecha: Wed Apr 22 08:33:38 CEST 2009
Usuario: evoflor
Presente Oscuro Del Espectro: Sí
La Referencia de Presente Del Espectro De: Sí
Muestreados de los componentes de Número de espectros: 1
Espectrómetros: USB4F02353
Tiempo de integración (usec): 500000 (USB4F02353)
Promedio de Espectros Hechos un: 5 (USB4F02353)
El Alisar Del Furgón: 0 (USB4F02353)
Párrafo de de Corregir del la del del de Eléctrica del obscuridad: Sí (USB4F02353)
Estrobo/Lámpara Permitido: No (USB4F02353)
Correct for Detector Non-linearity: No (USB4F02353)
Párrafo de de Corregir del la del del de Externa del luz: No (USB4F02353)
Procesado del espectro de Número de pixeles en: 3648
>>>>> Comienza Data<<<<< Espectral Procesado Del EL
177,79	908,958
178,00	908,958
178,22	908,958
178,44	-7535,648
178,66	476,722
178,88	16,219
179,09	3212,853
179,31	179,626
179,53	-6353,387
179,75	422,680
179,96	-124,570
180,18	383,534
180,40	-294,078
180,62	-122,682
180,83	195,799
181,05	-854,854
181,27	-917,003
181,49	123,677
181,70	-274,202
181,92	419,040
182,14	217,552
182,36	-1408,788
182,58	168,918
182,79	-799,407
183,01	-16113,112
183,23	315,753
183,45	-69,023
183,66	-36,730
183,88	836,623
184,10	926,051
184,32	790,208
184,53	-231,676
184,75	410,154
184,97	-212,906
185,18	944,558
185,40	283,530
185,62	-450,664
185,84	3519,092
186,05	3853,742
186,27	-6332,721
186,49	-882,529
186,71	258,357
186,92	413,109
187,14	1445,190
187,36	348,284
187,58	1128,760
187,79	-549,327
188,01	-1290,432
188,23	64,978
188,45	54,045
188,66	-49,972
188,88	249,585
189,10	-408,091
189,31	-91,244
189,53	-52,012
189,75	1121,639
189,97	204,510
190,18	-153,982
190,40	1471,725
190,62	299,894
190,83	361,267
191,05	-208,672
191,27	7922,320
191,49	545,806
191,70	712,635
191,92	461,786
192,14	508,771
192,35	-1531,053
192,57	-863,660
192,79	-2423,377
193,01	594,406
193,22	526,838
193,44	-680,847
193,66	261,425
193,87	1125,665
194,09	173,300
194,31	252,357
194,53	-442,416
194,74	512,462
194,96	400,886
195,18	620,155
195,39	-1117,642
195,61	-354,766
195,83	2578,489
196,04	247,336
196,26	182,207
196,48	2329,776
196,70	458,923
196,91	238,097
197,13	-51,290
197,35	190,596
197,56	-645,228
197,78	5144,919
198,00	384,073
198,21	194,002
198,43	899,969
198,65	190,398
198,86	102,635
199,08	584,325
199,30	181,462
199,51	1027,514
199,73	-1805,709
199,95	265,976
200,16	655,871
200,38	192,888
200,60	2030,877
200,81	-793,980
201,03	11319,617
201,25	672,055
201,46	-753,234
201,68	853,114
201,90	519,988
202,11	402,379
202,33	178,116
202,55	144,688
202,76	730,704
202,98	474,613
203,20	299,038
203,41	-976,980
203,63	501,138
203,85	91,360
204,06	-886,926
204,28	187,726
204,50	-395,628
204,71	454,304
204,93	118,861
205,15	257,177
205,36	-226,822
205,58	931,107
205,80	-2038,830
206,01	-2340,117
206,23	357,764
206,45	399,715
206,66	424,438
206,88	-771,322
207,10	1423,772
207,31	-42727,152
207,53	409,903
207,75	-151,612
207,96	409,050
208,18	240,067
208,39	195,025
208,61	803,350
208,83	9076,211
209,04	347,653
209,26	482,760
209,48	69,522
209,69	-108,134
209,91	1044,698
210,13	10,325
210,34	54,690
210,56	361,163
210,77	1659,496
210,99	347,737
211,21	-231,911
211,42	187,001
211,64	572,615
211,86	439,656
212,07	201,132
212,29	651,449
212,50	1350,857
212,72	196,300
212,94	496,961
213,15	226,780
213,37	684,709
213,58	133,520
213,80	363,360
214,02	2453,997
214,23	356,305
214,45	283,671
214,67	63,536
214,88	-71,908
215,10	1457,548
215,31	-301,615
215,53	63,465
215,75	387,906
215,96	599,326
216,18	163,626
216,39	346,675
216,61	451,740
216,83	940,370
217,04	402,664
217,26	50,827
217,47	748,813
217,69	404,195
217,91	79,785
218,12	943,211
218,34	75,035
218,55	224,922
218,77	-1,087
218,99	139,646
219,20	173,022
219,42	379,762
219,63	74,350
219,85	297,159
220,06	-76,583
220,28	150,086
220,50	41,078
220,71	119,910
220,93	495,096
221,14	391,318
221,36	57,713
221,58	101,981
221,79	84,917
222,01	163,439
222,22	164,194
222,44	47,603
222,65	206,407
222,87	-47,908
223,09	92,601
223,30	45,752
223,52	364,615
223,73	69,471
223,95	126,977
224,16	38,643
224,38	107,714
224,60	78,944
224,81	79,257
225,03	117,429
225,24	111,274
225,46	-16,114
225,67	30,318
225,89	51,199
226,10	87,758
226,32	116,393
226,54	1,285
226,75	3,994
226,97	107,408
227,18	91,111
227,40	80,562
227,61	18,097
227,83	45,173
228,04	121,132
228,26	65,150
228,47	44,225
228,69	106,749
228,91	39,667
229,12	112,361
229,34	25,754
229,55	73,542
229,77	28,211
229,98	13,619
230,20	46,694
230,41	-22,984
230,63	73,558
230,84	33,599
231,06	59,942
231,27	3,738
231,49	43,201
231,71	23,467
231,92	16,162
232,14	-25,135
232,35	32,711
232,57	-1,239
232,78	33,071
233,00	20,162
233,21	17,024
233,43	22,868
233,64	1,553
233,86	23,185
234,07	40,858
234,29	5,989
234,50	10,782
234,72	34,429
234,93	9,029
235,15	9,231
235,36	8,204
235,58	45,844
235,79	32,292
236,01	17,767
236,22	25,948
236,44	35,411
236,65	18,721
236,87	16,318
237,08	9,785
237,30	-6,175
237,51	21,219
237,73	17,782
237,94	5,875
238,16	19,084
238,37	11,011
238,59	3,783
238,80	13,944
239,02	5,236
239,23	25,438
239,45	11,418
239,66	22,199
239,88	22,800
240,09	12,191
240,31	5,163
240,52	4,437
240,74	11,159
240,95	10,945
241,17	11,947
241,38	8,135
241,60	-2,795
241,81	14,563
242,03	-3,524
242,24	13,165
242,46	14,516
242,67	-1,270
242,89	15,578
243,10	9,140
243,32	16,910
243,53	16,294
243,75	3,778
243,96	9,040
244,18	7,906
244,39	15,862
244,60	-2,123
244,82	4,402
245,03	12,470
245,25	5,873
245,46	22,833
245,68	5,622
245,89	25,872
246,11	18,209
246,32	7,812
246,54	8,512
246,75	2,404
246,97	18,433
247,18	19,817
247,39	4,999
247,61	13,248
247,82	12,454
248,04	-1,116
248,25	3,417
248,47	8,276
248,68	8,212
248,90	6,170
249,11	8,754
249,33	10,131
249,54	9,554
249,75	8,901
249,97	1,036
250,18	15,368
250,40	11,361
250,61	7,722
250,83	4,482
251,04	4,938
251,25	15,219
251,47	8,931
251,68	2,476
251,90	6,598
252,11	5,189
252,33	6,914
252,54	5,688
252,76	2,703
252,97	-0,997
253,18	6,062
253,40	8,434
253,61	4,143
253,83	4,038
254,04	8,812
254,25	-0,844
254,47	1,825
254,68	7,775
254,90	4,301
255,11	3,407
255,33	6,342
255,54	0,525
255,75	4,895
255,97	7,862
256,18	3,256
256,40	6,444
256,61	6,866
256,82	5,691
257,04	10,701
257,25	3,986
257,47	7,304
257,68	9,707
257,89	5,241
258,11	2,861
258,32	10,833
258,54	2,519
258,75	13,805
258,96	7,784
259,18	6,481
259,39	2,613
259,61	10,917
259,82	2,088
260,03	2,737
260,25	5,987
260,46	6,738
260,68	3,276
260,89	2,326
261,10	8,166
261,32	7,045
261,53	-1,749
261,75	6,896
261,96	5,856
262,17	16,395
262,39	10,793
262,60	0,012
262,81	7,069
263,03	7,403
263,24	6,785
263,46	2,614
263,67	7,552
263,88	6,184
264,10	3,166
264,31	4,910
264,52	5,728
264,74	5,089
264,95	3,628
265,17	8,266
265,38	7,042
265,59	8,805
265,81	7,545
266,02	1,784
266,23	1,322
266,45	10,732
266,66	9,102
266,87	6,089
267,09	5,466
267,30	8,494
267,52	12,256
267,73	7,359
267,94	2,567
268,16	6,922
268,37	2,464
268,58	8,060
268,80	-0,775
269,01	7,386
269,22	8,708
269,44	9,307
269,65	4,880
269,86	3,182
270,08	7,203
270,29	3,274
270,50	4,826
270,72	7,805
270,93	2,113
271,14	1,449
271,36	1,974
271,57	5,859
271,78	2,534
272,00	3,577
272,21	6,741
272,42	2,652
272,64	10,201
272,85	1,284
273,06	3,960
273,28	4,653
273,49	2,792
273,70	4,461
273,92	4,717
274,13	2,012
274,34	-3,439
274,56	7,962
274,77	5,990
274,98	11,726
275,20	6,227
275,41	7,392
275,62	1,405
275,84	3,894
276,05	12,205
276,26	3,576
276,47	3,448
276,69	8,998
276,90	9,364
277,11	3,959
277,33	1,068
277,54	10,522
277,75	5,637
277,97	0,458
278,18	-0,403
278,39	8,911
278,61	2,629
278,82	8,667
279,03	6,158
279,24	1,608
279,46	5,690
279,67	10,102
279,88	5,789
280,10	12,831
280,31	3,532
280,52	3,753
280,73	1,985
280,95	5,825
281,16	4,209
281,37	4,008
281,59	6,309
281,80	7,243
282,01	3,056
282,22	1,168
282,44	3,700
282,65	10,561
282,86	7,534
283,08	-0,034
283,29	6,180
283,50	-0,729
283,71	5,704
283,93	4,814
284,14	0,249
284,35	5,895
284,56	4,726
284,78	-0,876
284,99	5,468
285,20	9,555
285,42	1,643
285,63	5,522
285,84	2,274
286,05	3,027
286,27	2,966
286,48	9,035
286,69	2,612
286,90	3,996
287,12	2,091
287,33	5,641
287,54	2,345
287,75	9,421
287,97	1,342
288,18	3,011
288,39	5,378
288,60	4,505
288,82	3,500
289,03	1,719
289,24	6,578
289,45	7,563
289,67	4,791
289,88	2,971
290,09	9,016
290,30	4,632
290,52	1,221
290,73	0,065
290,94	4,238
291,15	2,473
291,37	4,569
291,58	6,053
291,79	3,820
292,00	2,872
292,21	3,678
292,43	5,689
292,64	1,431
292,85	4,271
293,06	5,812
293,28	1,306
293,49	3,029
293,70	7,705
293,91	-0,570
294,12	4,450
294,34	3,486
294,55	5,502
294,76	7,226
294,97	6,680
295,19	3,267
295,40	5,422
295,61	4,630
295,82	5,262
296,03	4,905
296,25	5,561
296,46	0,927
296,67	2,204
296,88	4,124
297,09	2,633
297,31	2,414
297,52	5,625
297,73	2,111
297,94	2,283
298,15	6,659
298,37	3,371
298,58	4,211
298,79	4,635
299,00	-1,402
299,21	3,770
299,43	0,339
299,64	8,855
299,85	2,036
300,06	1,737
300,27	1,633
300,49	7,300
300,70	6,380
300,91	2,804
301,12	2,618
301,33	7,904
301,54	1,500
301,76	5,267
301,97	3,598
302,18	5,411
302,39	7,128
302,60	2,697
302,82	3,339
303,03	9,423
303,24	3,175
303,45	5,536
303,66	6,298
303,87	1,127
304,09	6,379
304,30	1,598
304,51	3,686
304,72	1,418
304,93	5,306
305,14	1,732
305,36	1,925
305,57	1,661
305,78	7,458
305,99	3,919
306,20	4,118
306,41	1,167
306,62	0,589
306,84	2,867
307,05	3,810
307,26	3,044
307,47	8,801
307,68	2,332
307,89	3,307
308,11	5,627
308,32	4,111
308,53	2,044
308,74	-0,179
308,95	1,195
309,16	7,790
309,37	3,580
309,59	0,195
309,80	2,832
310,01	3,610
310,22	4,936
310,43	5,261
310,64	5,600
310,85	5,158
311,06	1,222
311,28	4,685
311,49	5,268
311,70	8,595
311,91	2,104
312,12	0,941
312,33	2,284
312,54	4,565
312,75	7,472
312,97	3,111
313,18	7,274
313,39	1,378
313,60	2,346
313,81	3,969
314,02	4,755
314,23	7,036
314,44	2,996
314,65	2,022
314,87	1,263
315,08	2,288
315,29	0,310
315,50	5,031
315,71	8,276
315,92	7,454
316,13	-0,010
316,34	4,742
316,55	5,855
316,77	2,523
316,98	2,433
317,19	2,472
317,40	4,943
317,61	7,606
317,82	4,528
318,03	0,564
318,24	5,047
318,45	7,714
318,66	4,267
318,87	1,627
319,09	4,668
319,30	6,179
319,51	6,056
319,72	3,909
319,93	4,431
320,14	5,431
320,35	5,668
320,56	2,096
320,77	4,607
320,98	7,764
321,19	6,571
321,40	4,609
321,62	6,613
321,83	-0,511
322,04	4,793
322,25	7,332
322,46	8,401
322,67	5,674
322,88	5,814
323,09	3,697
323,30	6,397
323,51	8,676
323,72	4,127
323,93	1,062
324,14	2,534
324,35	-1,022
324,56	2,511
324,77	1,255
324,99	3,213
325,20	1,752
325,41	5,325
325,62	2,390
325,83	-0,093
326,04	1,000
326,25	2,366
326,46	1,878
326,67	2,808
326,88	3,622
327,09	1,413
327,30	4,767
327,51	2,824
327,72	2,770
327,93	2,803
328,14	1,484
328,35	5,722
328,56	2,909
328,77	5,511
328,98	4,112
329,19	2,834
329,40	4,515
329,61	3,168
329,82	0,079
330,04	5,164
330,25	3,778
330,46	4,452
330,67	1,730
330,88	5,846
331,09	3,369
331,30	4,378
331,51	3,330
331,72	4,171
331,93	3,920
332,14	1,095
332,35	6,158
332,56	2,499
332,77	9,089
332,98	2,433
333,19	3,498
333,40	4,312
333,61	2,650
333,82	5,943
334,03	2,776
334,24	10,751
334,45	5,025
334,66	5,360
334,87	2,424
335,08	1,233
335,29	1,505
335,50	5,822
335,71	0,509
335,92	6,224
336,13	4,997
336,34	0,739
336,55	4,893
336,76	5,849
336,97	3,603
337,18	2,404
337,39	4,480
337,60	4,132
337,81	3,311
338,02	4,484
338,23	3,273
338,44	4,373
338,65	-0,555
338,86	3,115
339,07	4,380
339,28	1,530
339,49	1,320
339,70	0,870
339,91	3,248
340,11	7,094
340,32	5,483
340,53	2,251
340,74	-1,130
340,95	1,144
341,16	2,836
341,37	4,815
341,58	5,016
341,79	1,693
342,00	2,554
342,21	-1,820
342,42	3,214
342,63	6,172
342,84	5,428
343,05	4,301
343,26	8,064
343,47	7,297
343,68	3,083
343,89	0,954
344,10	2,141
344,31	3,679
344,52	4,579
344,73	2,886
344,94	0,589
345,14	3,403
345,35	2,635
345,56	1,065
345,77	-0,252
345,98	2,332
346,19	5,161
346,40	6,395
346,61	0,966
346,82	3,946
347,03	6,957
347,24	1,258
347,45	2,484
347,66	7,623
347,87	1,710
348,08	7,533
348,28	3,766
348,49	2,247
348,70	7,109
348,91	4,706
349,12	1,630
349,33	-2,056
349,54	6,959
349,75	5,778
349,96	2,442
350,17	7,199
350,38	1,854
350,59	2,604
350,80	3,926
351,00	4,037
351,21	10,025
351,42	1,808
351,63	2,432
351,84	4,927
352,05	5,771
352,26	2,383
352,47	4,957
352,68	5,899
352,89	4,777
353,09	0,051
353,30	0,929
353,51	0,682
353,72	7,074
353,93	8,290
354,14	2,840
354,35	2,982
354,56	7,439
354,77	1,962
354,98	1,336
355,18	4,820
355,39	10,686
355,60	0,626
355,81	5,762
356,02	1,564
356,23	2,852
356,44	6,212
356,65	2,114
356,85	7,495
357,06	8,850
357,27	3,096
357,48	0,954
357,69	8,784
357,90	4,315
358,11	-1,388
358,32	1,707
358,52	6,313
358,73	3,745
358,94	2,033
359,15	5,649
359,36	5,804
359,57	4,356
359,78	8,553
359,98	5,590
360,19	-0,384
360,40	2,710
360,61	7,594
360,82	2,622
361,03	11,568
361,24	14,487
361,44	0,786
361,65	2,661
361,86	1,686
362,07	4,178
362,28	7,699
362,49	4,391
362,70	7,023
362,90	3,471
363,11	1,335
363,32	0,862
363,53	2,656
363,74	9,574
363,95	7,316
364,15	3,060
364,36	6,920
364,57	2,053
364,78	3,250
364,99	2,175
365,20	5,315
365,40	7,790
365,61	4,957
365,82	3,909
366,03	8,220
366,24	1,362
366,45	-1,049
366,65	-2,042
366,86	4,789
367,07	2,773
367,28	0,177
367,49	1,359
367,69	6,169
367,90	3,249
368,11	3,692
368,32	4,005
368,53	8,188
368,73	3,732
368,94	5,941
369,15	5,004
369,36	7,303
369,57	5,102
369,78	5,208
369,98	4,709
370,19	8,469
370,40	2,425
370,61	3,125
370,82	5,459
371,02	8,082
371,23	3,032
371,44	2,977
371,65	2,567
371,85	10,366
372,06	0,031
372,27	5,430
372,48	4,235
372,69	8,173
372,89	3,290
373,10	3,469
373,31	4,591
373,52	4,232
373,73	6,880
373,93	5,162
374,14	4,139
374,35	5,281
374,56	3,489
374,76	5,502
374,97	2,612
375,18	7,529
375,39	4,646
375,60	7,804
375,80	5,221
376,01	2,980
376,22	6,985
376,43	5,319
376,63	5,601
376,84	6,648
377,05	5,217
377,26	3,390
377,46	3,903
377,67	3,630
377,88	0,705
378,09	3,871
378,29	3,866
378,50	3,995
378,71	2,566
378,92	2,015
379,12	1,482
379,33	0,506
379,54	4,894
379,75	7,575
379,95	4,877
380,16	4,693
380,37	3,555
380,58	1,731
380,78	4,024
380,99	1,252
381,20	3,551
381,41	6,797
381,61	2,687
381,82	5,675
382,03	6,744
382,24	6,663
382,44	2,670
382,65	3,567
382,86	7,250
383,06	9,279
383,27	4,227
383,48	4,336
383,69	5,709
383,89	1,861
384,10	1,627
384,31	3,495
384,51	6,976
384,72	5,234
384,93	4,593
385,14	-0,396
385,34	2,112
385,55	3,327
385,76	-0,110
385,96	8,605
386,17	5,483
386,38	2,550
386,59	3,950
386,79	7,376
387,00	10,693
387,21	8,386
387,41	5,193
387,62	4,146
387,83	8,303
388,03	5,915
388,24	3,515
388,45	4,218
388,66	6,490
388,86	3,515
389,07	1,911
389,28	10,959
389,48	4,760
389,69	2,265
389,90	-0,157
390,10	2,417
390,31	10,626
390,52	2,659
390,72	4,898
390,93	7,314
391,14	4,176
391,34	5,433
391,55	4,645
391,76	6,785
391,96	12,809
392,17	3,169
392,38	0,937
392,58	2,642
392,79	2,073
393,00	0,881
393,20	3,076
393,41	5,064
393,62	7,693
393,82	1,882
394,03	5,933
394,24	3,412
394,44	6,124
394,65	7,405
394,86	3,762
395,06	8,842
395,27	6,545
395,48	3,687
395,68	3,301
395,89	4,308
396,10	7,985
396,30	1,120
396,51	2,262
396,72	6,012
396,92	2,083
397,13	6,270
397,34	0,788
397,54	5,416
397,75	3,061
397,95	2,152
398,16	3,782
398,37	5,760
398,57	-2,344
398,78	1,029
398,99	4,101
399,19	6,693
399,40	10,652
399,60	2,931
399,81	7,108
400,02	8,943
400,22	5,273
400,43	7,400
400,64	1,969
400,84	0,129
401,05	3,559
401,25	5,171
401,46	1,284
401,67	7,273
401,87	3,809
402,08	-0,297
402,29	3,884
402,49	9,812
402,70	3,903
402,90	1,152
403,11	5,491
403,32	-0,680
403,52	2,380
403,73	2,514
403,93	7,293
404,14	10,055
404,35	1,963
404,55	-0,877
404,76	3,766
404,96	4,158
405,17	8,042
405,38	8,598
405,58	1,472
405,79	8,358
405,99	7,773
406,20	4,195
406,40	3,750
406,61	2,953
406,82	2,622
407,02	4,684
407,23	-1,094
407,43	4,294
407,64	-0,652
407,85	4,873
408,05	-0,952
408,26	12,753
408,46	6,674
408,67	0,666
408,87	4,303
409,08	2,929
409,29	8,889
409,49	7,459
409,70	4,154
409,90	3,311
410,11	4,993
410,31	7,280
410,52	5,817
410,72	2,280
410,93	6,194
411,14	1,946
411,34	-1,081
411,55	0,598
411,75	5,353
411,96	5,942
412,16	3,805
412,37	0,313
412,57	3,145
412,78	8,636
412,99	0,920
413,19	6,365
413,40	2,501
413,60	4,024
413,81	3,802
414,01	1,922
414,22	5,302
414,42	2,391
414,63	0,698
414,83	2,723
415,04	10,063
415,24	5,256
415,45	3,065
415,65	3,728
415,86	7,748
416,07	2,024
416,27	5,933
416,48	7,491
416,68	11,890
416,89	-0,838
417,09	5,433
417,30	9,407
417,50	-2,757
417,71	5,308
417,91	5,186
418,12	5,751
418,32	4,992
418,53	-2,262
418,73	5,788
418,94	2,125
419,14	7,376
419,35	-1,066
419,55	0,983
419,76	6,592
419,96	4,039
420,17	0,837
420,37	1,831
420,58	5,355
420,78	4,936
420,99	0,863
421,19	5,229
421,40	7,838
421,60	6,267
421,81	-1,496
422,01	3,070
422,22	6,251
422,42	5,403
422,63	7,588
422,83	4,306
423,04	11,395
423,24	12,946
423,45	4,446
423,65	1,098
423,86	8,998
424,06	5,387
424,27	-1,413
424,47	5,228
424,67	0,816
424,88	4,907
425,08	2,174
425,29	8,321
425,49	-2,434
425,70	1,194
425,90	2,187
426,11	2,830
426,31	7,041
426,52	6,602
426,72	1,696
426,93	2,010
427,13	5,568
427,33	0,161
427,54	4,512
427,74	3,577
427,95	8,226
428,15	0,460
428,36	3,900
428,56	-0,466
428,77	2,938
428,97	4,325
429,18	3,629
429,38	0,664
429,58	2,364
429,79	6,023
429,99	-0,574
430,20	2,069
430,40	6,510
430,61	0,629
430,81	3,004
431,01	4,868
431,22	10,160
431,42	4,303
431,63	-2,007
431,83	3,654
432,04	8,664
432,24	5,685
432,44	5,152
432,65	1,990
432,85	2,071
433,06	7,121
433,26	2,078
433,47	2,068
433,67	0,417
433,87	4,348
434,08	2,470
434,28	-1,417
434,49	0,669
434,69	10,283
434,89	3,790
435,10	2,937
435,30	4,187
435,51	2,133
435,71	0,060
435,91	0,317
436,12	0,189
436,32	0,345
436,53	1,778
436,73	0,167
436,93	2,763
437,14	4,297
437,34	4,410
437,55	-0,815
437,75	7,769
437,95	8,539
438,16	-0,121
438,36	2,130
438,57	6,423
438,77	-0,301
438,97	7,436
439,18	3,366
439,38	3,659
439,58	0,195
439,79	2,100
439,99	-2,043
440,20	8,283
440,40	5,931
440,60	4,272
440,81	-1,519
441,01	4,463
441,21	2,518
441,42	2,206
441,62	3,500
441,83	1,418
442,03	2,099
442,23	4,004
442,44	3,568
442,64	3,736
442,84	-0,691
443,05	4,637
443,25	-0,502
443,45	4,436
443,66	1,465
443,86	1,462
444,06	4,399
444,27	0,967
444,47	7,206
444,67	5,718
444,88	3,447
445,08	4,007
445,28	-0,472
445,49	3,467
445,69	4,419
445,90	6,383
446,10	7,019
446,30	3,176
446,51	3,713
446,71	4,660
446,91	5,285
447,12	11,747
447,32	3,397
447,52	3,591
447,72	7,874
447,93	2,198
448,13	-1,758
448,33	6,035
448,54	7,756
448,74	0,192
448,94	2,571
449,15	7,743
449,35	1,515
449,55	6,448
449,76	5,274
449,96	2,335
450,16	5,501
450,37	3,389
450,57	2,968
450,77	0,835
450,98	2,898
451,18	5,782
451,38	6,028
451,58	7,013
451,79	1,737
451,99	3,281
452,19	4,234
452,40	11,590
452,60	-0,124
452,80	8,362
453,00	5,577
453,21	0,067
453,41	5,163
453,61	0,210
453,82	6,508
454,02	3,927
454,22	16,625
454,42	4,543
454,63	0,595
454,83	-1,672
455,03	6,840
455,24	2,100
455,44	5,265
455,64	2,015
455,84	1,104
456,05	2,168
456,25	0,941
456,45	2,624
456,65	3,845
456,86	5,982
457,06	4,738
457,26	6,931
457,47	9,754
457,67	4,777
457,87	1,311
458,07	6,075
458,28	6,412
458,48	9,884
458,68	-0,758
458,88	9,812
459,09	1,514
459,29	10,963
459,49	-1,881
459,69	6,287
459,90	3,130
460,10	2,137
460,30	5,757
460,50	3,613
460,71	3,749
460,91	-1,108
461,11	7,741
461,31	4,701
461,52	10,995
461,72	3,523
461,92	2,592
462,12	10,025
462,32	-0,427
462,53	2,651
462,73	2,638
462,93	7,512
463,13	8,822
463,34	3,571
463,54	7,931
463,74	2,117
463,94	4,073
464,14	7,093
464,35	2,847
464,55	9,950
464,75	12,248
464,95	3,149
465,16	2,061
465,36	8,516
465,56	0,436
465,76	3,734
465,96	6,590
466,17	5,703
466,37	2,331
466,57	7,326
466,77	8,426
466,97	3,206
467,18	8,230
467,38	8,117
467,58	12,663
467,78	9,690
467,98	8,287
468,19	3,654
468,39	7,568
468,59	-0,413
468,79	7,409
468,99	3,645
469,19	5,007
469,40	4,566
469,60	4,143
469,80	4,520
470,00	6,018
470,20	11,064
470,41	2,548
470,61	6,232
470,81	8,755
471,01	4,712
471,21	10,857
471,41	7,445
471,62	6,799
471,82	2,030
472,02	2,978
472,22	5,781
472,42	3,955
472,62	10,044
472,83	1,107
473,03	6,231
473,23	4,892
473,43	9,633
473,63	10,169
473,83	6,646
474,03	7,206
474,24	9,708
474,44	5,308
474,64	8,513
474,84	2,750
475,04	3,032
475,24	10,471
475,45	3,759
475,65	5,892
475,85	10,759
476,05	0,878
476,25	3,694
476,45	8,354
476,65	11,874
476,85	2,430
477,06	8,041
477,26	3,799
477,46	7,271
477,66	9,196
477,86	8,437
478,06	6,584
478,26	13,908
478,46	6,204
478,67	10,134
478,87	5,562
479,07	7,599
479,27	10,237
479,47	6,962
479,67	2,895
479,87	5,237
480,07	11,005
480,28	8,050
480,48	5,116
480,68	10,660
480,88	14,074
481,08	12,639
481,28	9,278
481,48	8,440
481,68	7,874
481,88	3,404
482,08	7,930
482,29	7,931
482,49	5,890
482,69	8,675
482,89	6,168
483,09	12,902
483,29	6,597
483,49	7,433
483,69	7,857
483,89	7,923
484,09	5,082
484,29	6,632
484,50	8,068
484,70	10,957
484,90	7,914
485,10	12,230
485,30	9,499
485,50	12,206
485,70	9,835
485,90	7,267
486,10	4,912
486,30	6,741
486,50	7,781
486,70	5,388
486,90	6,294
487,10	10,037
487,30	8,438
487,51	9,768
487,71	4,857
487,91	8,274
488,11	12,090
488,31	6,427
488,51	10,190
488,71	10,018
488,91	8,124
489,11	8,894
489,31	7,030
489,51	10,853
489,71	8,495
489,91	8,351
490,11	10,947
490,31	11,385
490,51	13,184
490,71	11,212
490,91	9,038
491,11	11,897
491,31	13,833
491,51	12,169
491,72	10,432
491,92	11,163
492,12	13,088
492,32	12,427
492,52	11,840
492,72	8,848
492,92	11,391
493,12	13,163
493,32	10,531
493,52	10,265
493,72	11,436
493,92	12,611
494,12	10,243
494,32	13,686
494,52	11,726
494,72	13,454
494,92	11,338
495,12	15,887
495,32	17,401
495,52	14,935
495,72	13,221
495,92	13,960
496,12	15,073
496,32	14,708
496,52	13,134
496,72	16,740
496,92	16,070
497,12	16,738
497,32	15,070
497,52	13,270
497,72	16,336
497,92	13,868
498,12	13,404
498,32	13,304
498,52	13,054
498,72	12,066
498,92	13,712
499,12	17,162
499,32	12,118
499,52	17,280
499,72	16,594
499,92	17,483
500,12	14,846
500,32	17,135
500,52	15,882
500,72	21,400
500,91	19,714
501,11	16,780
501,31	15,689
501,51	18,303
501,71	19,144
501,91	17,656
502,11	13,239
502,31	16,943
502,51	17,502
502,71	17,671
502,91	14,405
503,11	18,911
503,31	19,492
503,51	12,019
503,71	16,694
503,91	18,343
504,11	15,745
504,31	16,264
504,51	15,226
504,71	22,562
504,91	14,258
505,10	21,743
505,30	19,445
505,50	19,708
505,70	16,373
505,90	17,750
506,10	15,635
506,30	18,496
506,50	19,785
506,70	20,442
506,90	18,453
507,10	16,529
507,30	16,213
507,50	18,113
507,70	20,745
507,89	19,284
508,09	18,214
508,29	17,033
508,49	16,899
508,69	19,333
508,89	17,966
509,09	18,314
509,29	19,348
509,49	21,609
509,69	20,613
509,89	23,069
510,09	20,861
510,28	21,637
510,48	19,557
510,68	20,165
510,88	20,713
511,08	22,289
511,28	18,731
511,48	17,856
511,68	16,566
511,88	24,063
512,07	19,163
512,27	17,476
512,47	19,529
512,67	18,776
512,87	16,450
513,07	20,266
513,27	17,908
513,47	18,414
513,67	16,154
513,86	20,249
514,06	22,310
514,26	21,948
514,46	21,512
514,66	19,587
514,86	20,973
515,06	25,377
515,26	21,849
515,45	20,964
515,65	19,768
515,85	21,658
516,05	21,459
516,25	19,697
516,45	23,104
516,65	18,146
516,84	20,291
517,04	23,808
517,24	21,067
517,44	22,233
517,64	22,161
517,84	24,103
518,04	22,081
518,23	24,885
518,43	26,476
518,63	22,460
518,83	19,458
519,03	21,694
519,23	20,754
519,42	23,485
519,62	20,118
519,82	18,974
520,02	21,776
520,22	24,523
520,42	20,582
520,61	24,496
520,81	21,113
521,01	24,691
521,21	20,277
521,41	21,594
521,61	25,326
521,80	19,441
522,00	20,267
522,20	24,077
522,40	22,343
522,60	21,091
522,79	21,930
522,99	26,745
523,19	18,844
523,39	21,415
523,59	23,572
523,78	22,793
523,98	21,793
524,18	24,358
524,38	18,463
524,58	25,020
524,77	24,299
524,97	24,162
525,17	20,954
525,37	21,303
525,57	26,893
525,76	25,488
525,96	27,553
526,16	22,416
526,36	21,613
526,56	23,102
526,75	23,676
526,95	25,171
527,15	22,720
527,35	23,229
527,55	21,016
527,74	21,107
527,94	21,461
528,14	19,983
528,34	21,998
528,53	20,549
528,73	26,976
528,93	25,189
529,13	20,517
529,32	22,455
529,52	22,275
529,72	22,118
529,92	23,137
530,12	21,513
530,31	23,541
530,51	23,887
530,71	21,786
530,91	28,913
531,10	18,667
531,30	23,957
531,50	21,433
531,70	25,036
531,89	26,288
532,09	20,380
532,29	23,378
532,49	23,274
532,68	24,025
532,88	20,720
533,08	21,911
533,28	24,581
533,47	23,537
533,67	23,426
533,87	23,765
534,06	28,456
534,26	20,812
534,46	21,542
534,66	22,549
534,85	25,214
535,05	20,052
535,25	21,533
535,45	23,204
535,64	25,466
535,84	25,276
536,04	18,468
536,23	24,163
536,43	26,025
536,63	23,849
536,83	23,699
537,02	22,074
537,22	20,056
537,42	22,586
537,61	22,156
537,81	22,165
538,01	24,541
538,20	22,698
538,40	19,720
538,60	21,669
538,80	20,875
538,99	22,236
539,19	21,742
539,39	19,734
539,58	20,362
539,78	19,224
539,98	20,007
540,17	15,946
540,37	22,154
540,57	17,124
540,76	17,968
540,96	12,317
541,16	16,875
541,36	16,553
541,55	14,469
541,75	13,433
541,95	16,787
542,14	11,659
542,34	12,300
542,54	11,086
542,73	15,540
542,93	12,178
543,13	12,446
543,32	11,506
543,52	14,382
543,72	11,073
543,91	13,502
544,11	11,893
544,31	8,310
544,50	13,098
544,70	15,568
544,89	13,878
545,09	16,227
545,29	14,126
545,48	15,501
545,68	12,202
545,88	17,571
546,07	14,468
546,27	16,851
546,47	18,784
546,66	17,477
546,86	15,990
547,06	19,378
547,25	16,902
547,45	18,773
547,64	21,095
547,84	21,663
548,04	20,454
548,23	24,896
548,43	20,453
548,63	23,869
548,82	19,090
549,02	23,336
549,21	20,523
549,41	21,962
549,61	22,605
549,80	20,816
550,00	23,742
550,20	22,213
550,39	22,884
550,59	21,542
550,78	21,090
550,98	22,301
551,18	24,870
551,37	22,816
551,57	20,741
551,76	22,329
551,96	22,322
552,16	21,885
552,35	24,154
552,55	21,055
552,74	22,885
552,94	25,654
553,14	21,264
553,33	23,776
553,53	23,680
553,72	22,325
553,92	26,361
554,12	22,297
554,31	24,041
554,51	23,249
554,70	20,559
554,90	22,981
555,09	28,250
555,29	23,318
555,49	24,829
555,68	27,223
555,88	21,687
556,07	22,916
556,27	29,948
556,46	24,976
556,66	22,369
556,86	29,369
557,05	25,191
557,25	22,141
557,44	23,134
557,64	22,697
557,83	23,267
558,03	23,439
558,22	21,294
558,42	22,195
558,62	24,463
558,81	25,921
559,01	23,869
559,20	24,179
559,40	22,036
559,59	25,045
559,79	22,130
559,98	24,320
560,18	25,459
560,37	24,645
560,57	23,821
560,76	23,253
560,96	21,827
561,16	25,559
561,35	20,858
561,55	25,457
561,74	25,181
561,94	25,626
562,13	23,357
562,33	25,305
562,52	25,283
562,72	21,763
562,91	23,371
563,11	24,138
563,30	25,374
563,50	23,161
563,69	22,339
563,89	21,450
564,08	24,614
564,28	22,418
564,47	25,288
564,67	23,909
564,86	22,791
565,06	22,927
565,25	21,281
565,45	22,342
565,64	25,602
565,84	24,923
566,03	22,137
566,23	25,847
566,42	24,272
566,62	23,498
566,81	23,917
567,01	22,313
567,20	22,786
567,40	23,514
567,59	22,473
567,79	26,982
567,98	26,544
568,18	22,679
568,37	25,431
568,57	24,177
568,76	23,410
568,96	25,111
569,15	21,483
569,35	25,043
569,54	27,515
569,73	25,754
569,93	23,849
570,12	22,915
570,32	24,492
570,51	23,413
570,71	25,486
570,90	25,102
571,10	23,872
571,29	23,673
571,49	21,987
571,68	24,568
571,87	25,423
572,07	24,681
572,26	20,387
572,46	23,121
572,65	23,105
572,85	21,993
573,04	24,043
573,24	22,045
573,43	26,480
573,62	24,399
573,82	23,319
574,01	22,859
574,21	21,316
574,40	21,757
574,60	20,477
574,79	26,591
574,98	23,251
575,18	23,494
575,37	21,254
575,57	23,708
575,76	23,079
575,96	23,936
576,15	24,711
576,34	22,135
576,54	23,189
576,73	22,907
576,93	22,116
577,12	22,551
577,31	22,339
577,51	22,267
577,70	22,473
577,90	22,691
578,09	22,609
578,28	22,512
578,48	22,966
578,67	23,014
578,87	24,226
579,06	22,328
579,25	22,676
579,45	24,326
579,64	21,611
579,84	20,960
580,03	23,689
580,22	22,907
580,42	22,081
580,61	23,177
580,81	22,805
581,00	23,179
581,19	23,607
581,39	21,402
581,58	21,597
581,77	21,049
581,97	23,718
582,16	20,969
582,35	21,866
582,55	22,411
582,74	23,881
582,94	24,125
583,13	22,635
583,32	22,756
583,52	24,091
583,71	22,219
583,90	22,250
584,10	23,473
584,29	23,904
584,48	21,085
584,68	20,902
584,87	23,807
585,06	22,161
585,26	20,965
585,45	21,564
585,65	25,107
585,84	22,674
586,03	21,905
586,23	21,064
586,42	22,844
586,61	27,052
586,81	22,501
587,00	22,138
587,19	22,499
587,39	24,936
587,58	22,941
587,77	21,994
587,97	20,225
588,16	22,657
588,35	22,777
588,54	22,585
588,74	24,169
588,93	25,244
589,12	22,516
589,32	20,979
589,51	21,585
589,70	19,884
589,90	20,518
590,09	20,029
590,28	24,147
590,48	20,057
590,67	22,621
590,86	21,769
591,06	22,001
591,25	23,817
591,44	23,290
591,63	22,826
591,83	21,765
592,02	22,897
592,21	23,111
592,41	24,433
592,60	23,408
592,79	23,669
592,98	24,904
593,18	22,426
593,37	21,850
593,56	23,587
593,76	23,842
593,95	23,246
594,14	22,101
594,33	24,994
594,53	23,622
594,72	21,919
594,91	23,581
595,10	23,742
595,30	22,822
595,49	23,223
595,68	25,256
595,88	25,528
596,07	24,277
596,26	24,382
596,45	22,568
596,65	22,129
596,84	22,141
597,03	24,770
597,22	22,354
597,42	24,590
597,61	22,290
597,80	25,244
597,99	21,758
598,19	25,025
598,38	24,111
598,57	23,476
598,76	24,609
598,95	23,869
599,15	23,461
599,34	22,674
599,53	22,038
599,72	22,657
599,92	25,393
600,11	23,648
600,30	24,205
600,49	26,257
600,69	22,909
600,88	23,735
601,07	22,724
601,26	22,525
601,45	22,988
601,65	21,942
601,84	24,568
602,03	22,714
602,22	23,931
602,42	25,569
602,61	22,012
602,80	23,557
602,99	23,599
603,18	23,529
603,38	25,375
603,57	22,792
603,76	22,163
603,95	21,776
604,14	23,772
604,34	20,986
604,53	21,064
604,72	24,117
604,91	25,318
605,10	23,025
605,29	25,362
605,49	20,402
605,68	24,036
605,87	26,665
606,06	22,205
606,25	23,029
606,45	24,623
606,64	23,175
606,83	25,609
607,02	22,175
607,21	24,861
607,40	23,878
607,60	22,359
607,79	21,263
607,98	20,431
608,17	21,448
608,36	20,813
608,55	22,480
608,75	22,399
608,94	21,827
609,13	18,275
609,32	17,575
609,51	19,662
609,70	19,951
609,89	17,516
610,09	17,172
610,28	18,425
610,47	18,043
610,66	18,609
610,85	14,248
611,04	18,015
611,23	15,498
611,43	16,153
611,62	17,482
611,81	15,844
612,00	17,712
612,19	16,627
612,38	18,799
612,57	17,882
612,77	18,352
612,96	18,090
613,15	19,200
613,34	20,492
613,53	19,862
613,72	20,065
613,91	19,684
614,10	20,937
614,29	22,532
614,49	20,994
614,68	20,544
614,87	21,740
615,06	24,541
615,25	20,602
615,44	22,546
615,63	22,438
615,82	20,920
616,01	22,896
616,21	20,438
616,40	22,807
616,59	23,591
616,78	20,793
616,97	21,578
617,16	21,428
617,35	24,239
617,54	22,728
617,73	24,060
617,92	21,895
618,11	23,869
618,31	22,797
618,50	24,248
618,69	21,396
618,88	22,552
619,07	19,160
619,26	20,716
619,45	20,447
619,64	20,328
619,83	20,666
620,02	21,815
620,21	23,985
620,40	22,657
620,59	24,012
620,78	21,137
620,97	23,179
621,17	24,760
621,36	21,660
621,55	19,572
621,74	23,813
621,93	24,122
622,12	23,862
622,31	20,693
622,50	23,594
622,69	24,236
622,88	21,968
623,07	24,320
623,26	22,576
623,45	25,071
623,64	21,774
623,83	22,475
624,02	22,366
624,21	22,767
624,40	22,203
624,59	20,525
624,78	22,661
624,97	26,024
625,16	21,480
625,35	20,496
625,54	20,928
625,73	21,802
625,92	24,598
626,12	24,081
626,31	23,842
626,50	23,696
626,69	21,973
626,88	21,762
627,07	22,725
627,26	21,585
627,45	22,310
627,64	20,680
627,83	23,330
628,02	21,965
628,21	22,897
628,40	22,667
628,59	23,807
628,78	20,631
628,97	21,908
629,16	22,273
629,35	23,219
629,54	23,871
629,73	24,244
629,92	21,356
630,10	22,970
630,29	23,334
630,48	21,910
630,67	21,702
630,86	24,273
631,05	22,377
631,24	23,288
631,43	20,830
631,62	22,818
631,81	21,824
632,00	23,069
632,19	20,213
632,38	24,097
632,57	24,967
632,76	20,224
632,95	22,772
633,14	25,184
633,33	24,209
633,52	24,814
633,71	23,984
633,90	20,635
634,09	22,575
634,28	24,011
634,47	22,338
634,66	22,730
634,85	23,041
635,04	26,058
635,22	22,642
635,41	22,748
635,60	24,457
635,79	25,362
635,98	22,222
636,17	23,524
636,36	21,171
636,55	21,718
636,74	21,628
636,93	22,138
637,12	22,680
637,31	21,182
637,50	22,349
637,69	23,220
637,87	24,602
638,06	21,636
638,25	21,288
638,44	22,547
638,63	20,861
638,82	21,766
639,01	22,728
639,20	23,788
639,39	23,849
639,58	23,520
639,77	22,424
639,95	21,552
640,14	24,329
640,33	22,260
640,52	22,778
640,71	24,999
640,90	22,048
641,09	23,975
641,28	21,716
641,47	24,478
641,66	23,273
641,84	25,818
642,03	20,325
642,22	23,326
642,41	25,921
642,60	23,017
642,79	22,965
642,98	22,965
643,17	24,841
643,35	22,178
643,54	22,559
643,73	22,905
643,92	22,966
644,11	23,178
644,30	23,319
644,49	23,809
644,67	21,730
644,86	21,887
645,05	22,722
645,24	21,808
645,43	21,519
645,62	23,326
645,81	21,712
645,99	22,473
646,18	23,926
646,37	23,731
646,56	23,224
646,75	22,696
646,94	24,169
647,13	22,195
647,31	23,215
647,50	22,130
647,69	24,647
647,88	24,146
648,07	23,381
648,26	27,526
648,44	22,472
648,63	23,694
648,82	21,991
649,01	24,944
649,20	20,510
649,38	24,510
649,57	22,191
649,76	21,985
649,95	23,900
650,14	21,113
650,33	22,568
650,51	22,782
650,70	22,187
650,89	23,689
651,08	22,648
651,27	24,986
651,45	22,044
651,64	23,391
651,83	21,957
652,02	21,395
652,21	21,569
652,39	23,646
652,58	24,531
652,77	25,374
652,96	22,105
653,15	24,039
653,33	23,188
653,52	23,050
653,71	23,463
653,90	23,414
654,09	22,069
654,27	22,699
654,46	22,751
654,65	22,966
654,84	22,463
655,02	25,497
655,21	21,757
655,40	25,063
655,59	23,574
655,77	23,873
655,96	22,871
656,15	23,838
656,34	24,389
656,53	23,640
656,71	23,308
656,90	25,438
657,09	24,084
657,28	24,043
657,46	23,184
657,65	23,073
657,84	23,768
658,03	23,195
658,21	24,449
658,40	22,633
658,59	23,315
658,78	22,583
658,96	21,258
659,15	23,856
659,34	22,138
659,52	24,118
659,71	23,388
659,90	21,860
660,09	22,479
660,27	24,154
660,46	24,412
660,65	23,140
660,84	22,103
661,02	23,845
661,21	24,021
661,40	24,728
661,58	23,797
661,77	23,110
661,96	21,234
662,15	23,862
662,33	22,940
662,52	22,631
662,71	22,868
662,89	21,913
663,08	24,091
663,27	24,842
663,45	22,206
663,64	24,178
663,83	21,933
664,02	20,686
664,20	23,625
664,39	22,157
664,58	22,580
664,76	22,427
664,95	23,942
665,14	24,283
665,32	21,481
665,51	23,870
665,70	23,229
665,88	24,666
666,07	22,186
666,26	25,343
666,44	24,857
666,63	21,104
666,82	21,769
667,00	22,383
667,19	22,008
667,38	23,607
667,56	22,547
667,75	24,152
667,94	23,414
668,12	22,452
668,31	24,977
668,50	24,266
668,68	24,423
668,87	22,588
669,06	23,437
669,24	24,391
669,43	22,468
669,62	23,317
669,80	21,648
669,99	22,279
670,18	22,683
670,36	21,283
670,55	25,309
670,74	21,330
670,92	19,546
671,11	25,518
671,29	21,171
671,48	21,802
671,67	22,693
671,85	22,756
672,04	22,606
672,23	21,511
672,41	22,101
672,60	23,348
672,78	22,429
672,97	23,340
673,16	24,287
673,34	24,072
673,53	21,528
673,71	23,705
673,90	23,295
674,09	22,442
674,27	24,092
674,46	22,884
674,64	21,688
674,83	22,977
675,02	21,209
675,20	22,481
675,39	22,245
675,57	22,863
675,76	22,483
675,95	25,739
676,13	23,059
676,32	22,178
676,50	22,877
676,69	21,359
676,88	23,587
677,06	21,172
677,25	23,222
677,43	25,344
677,62	23,892
677,80	22,553
677,99	23,213
678,18	24,626
678,36	25,787
678,55	21,272
678,73	21,184
678,92	21,694
679,10	22,696
679,29	22,043
679,48	21,210
679,66	23,513
679,85	22,851
680,03	24,387
680,22	21,606
680,40	22,252
680,59	23,004
680,77	21,458
680,96	22,312
681,15	23,311
681,33	26,153
681,52	22,298
681,70	21,826
681,89	24,742
682,07	22,336
682,26	22,172
682,44	23,284
682,63	22,413
682,81	23,594
683,00	23,645
683,18	21,488
683,37	23,267
683,55	21,919
683,74	23,843
683,92	28,549
684,11	23,542
684,29	22,411
684,48	21,310
684,67	21,852
684,85	22,747
685,04	24,193
685,22	21,930
685,41	22,097
685,59	23,717
685,78	20,861
685,96	21,703
686,15	23,019
686,33	22,191
686,52	23,230
686,70	22,930
686,89	23,488
687,07	21,933
687,26	22,503
687,44	23,377
687,62	22,307
687,81	24,013
687,99	23,670
688,18	22,686
688,36	23,984
688,55	24,363
688,73	22,741
688,92	23,148
689,10	22,783
689,29	24,523
689,47	24,559
689,66	22,344
689,84	23,702
690,03	26,998
690,21	21,392
690,40	20,840
690,58	21,962
690,76	21,107
690,95	23,356
691,13	20,162
691,32	22,864
691,50	22,394
691,69	23,950
691,87	23,382
692,06	22,806
692,24	22,994
692,43	23,778
692,61	24,019
692,79	22,283
692,98	21,478
693,16	23,982
693,35	21,043
693,53	24,819
693,72	23,366
693,90	25,224
694,08	21,497
694,27	22,132
694,45	24,124
694,64	25,370
694,82	21,778
695,01	22,291
695,19	21,610
695,37	22,826
695,56	22,912
695,74	23,100
695,93	22,452
696,11	21,758
696,29	22,671
696,48	23,993
696,66	24,293
696,85	21,075
697,03	22,606
697,21	23,072
697,40	24,687
697,58	23,272
697,77	24,016
697,95	22,680
698,13	22,457
698,32	21,605
698,50	22,222
698,69	22,237
698,87	23,718
699,05	25,515
699,24	21,256
699,42	22,729
699,60	21,404
699,79	22,807
699,97	21,394
700,16	21,245
700,34	27,099
700,52	21,702
700,71	22,403
700,89	20,875
701,07	21,239
701,26	23,296
701,44	22,234
701,63	23,277
701,81	23,910
701,99	22,965
702,18	21,563
702,36	21,844
702,54	23,539
702,73	22,503
702,91	20,475
703,09	20,750
703,28	20,669
703,46	23,105
703,64	23,001
703,83	24,818
704,01	23,343
704,19	21,756
704,38	21,281
704,56	22,965
704,74	23,748
704,93	21,068
705,11	22,015
705,29	22,168
705,48	24,773
705,66	23,100
705,84	22,764
706,03	19,703
706,21	21,163
706,39	21,874
706,58	21,715
706,76	22,285
706,94	22,671
707,12	22,298
707,31	21,904
707,49	22,109
707,67	21,822
707,86	24,326
708,04	23,680
708,22	22,515
708,41	23,710
708,59	21,168
708,77	23,053
708,95	23,646
709,14	25,676
709,32	23,859
709,50	21,270
709,69	23,656
709,87	21,536
710,05	20,847
710,23	22,384
710,42	21,980
710,60	22,444
710,78	24,934
710,97	22,060
711,15	22,511
711,33	23,083
711,51	22,385
711,70	21,411
711,88	22,776
712,06	24,312
712,24	23,707
712,43	23,592
712,61	21,397
712,79	21,767
712,97	20,267
713,16	22,190
713,34	21,284
713,52	23,660
713,70	22,002
713,89	21,187
714,07	21,409
714,25	22,845
714,43	23,373
714,62	21,080
714,80	21,630
714,98	20,393
715,16	21,858
715,35	20,965
715,53	21,905
715,71	25,279
715,89	26,426
716,07	22,969
716,26	22,636
716,44	23,762
716,62	24,139
716,80	23,654
716,99	23,022
717,17	25,992
717,35	22,144
717,53	21,516
717,71	21,833
717,90	25,477
718,08	23,858
718,26	21,652
718,44	24,722
718,62	24,521
718,81	23,103
718,99	22,029
719,17	22,661
719,35	22,725
719,53	22,317
719,72	20,332
719,90	21,564
720,08	21,031
720,26	24,543
720,44	21,783
720,62	21,443
720,81	25,938
720,99	24,110
721,17	21,744
721,35	22,890
721,53	20,220
721,72	25,081
721,90	23,354
722,08	22,543
722,26	23,582
722,44	23,023
722,62	21,302
722,81	22,171
722,99	22,590
723,17	22,027
723,35	24,016
723,53	23,515
723,71	23,905
723,89	26,710
724,08	23,625
724,26	22,849
724,44	24,629
724,62	25,123
724,80	20,128
724,98	23,003
725,16	24,552
725,35	22,451
725,53	22,294
725,71	23,303
725,89	21,578
726,07	27,267
726,25	25,761
726,43	20,987
726,61	22,223
726,80	22,471
726,98	22,348
727,16	21,208
727,34	22,933
727,52	21,458
727,70	22,708
727,88	22,980
728,06	20,087
728,25	21,524
728,43	20,667
728,61	22,447
728,79	22,601
728,97	24,822
729,15	22,152
729,33	25,544
729,51	24,182
729,69	22,464
729,87	23,151
730,06	24,858
730,24	24,006
730,42	24,744
730,60	23,311
730,78	22,742
730,96	22,529
731,14	23,945
731,32	22,584
731,50	21,750
731,68	20,604
731,86	25,231
732,04	21,533
732,22	21,957
732,41	28,494
732,59	21,970
732,77	23,271
732,95	23,089
733,13	23,573
733,31	24,034
733,49	20,745
733,67	23,248
733,85	24,940
734,03	22,903
734,21	22,078
734,39	23,060
734,57	23,288
734,75	25,011
734,93	21,514
735,11	24,675
735,29	21,305
735,47	23,674
735,65	21,434
735,84	22,169
736,02	22,347
736,20	26,791
736,38	21,945
736,56	23,952
736,74	22,777
736,92	22,173
737,10	22,703
737,28	24,412
737,46	23,318
737,64	21,641
737,82	23,191
738,00	23,801
738,18	23,253
738,36	24,061
738,54	22,058
738,72	22,817
738,90	23,295
739,08	24,522
739,26	22,501
739,44	24,231
739,62	26,136
739,80	24,402
739,98	22,209
740,16	22,811
740,34	22,012
740,52	25,872
740,70	21,760
740,88	22,690
741,06	23,722
741,24	22,209
741,42	22,001
741,60	21,883
741,78	23,010
741,96	23,602
742,14	24,174
742,32	23,677
742,50	21,332
742,68	24,024
742,86	22,638
743,04	20,562
743,21	26,213
743,39	23,035
743,57	22,641
743,75	23,836
743,93	21,102
744,11	19,226
744,29	23,252
744,47	21,082
744,65	22,530
744,83	21,238
745,01	20,968
745,19	21,935
745,37	27,155
745,55	24,288
745,73	25,581
745,91	21,126
746,09	23,170
746,27	21,089
746,45	22,755
746,62	23,198
746,80	20,782
746,98	22,184
747,16	20,600
747,34	22,183
747,52	22,833
747,70	23,545
747,88	24,264
748,06	23,509
748,24	23,997
748,42	25,540
748,60	22,459
748,78	20,230
748,95	26,580
749,13	26,923
749,31	22,067
749,49	22,854
749,67	23,416
749,85	24,071
750,03	24,185
750,21	22,482
750,39	25,824
750,57	21,108
750,74	25,084
750,92	23,998
751,10	23,937
751,28	20,500
751,46	24,094
751,64	22,504
751,82	23,863
752,00	23,475
752,17	25,051
752,35	25,072
752,53	24,869
752,71	22,779
752,89	23,601
753,07	22,497
753,25	23,390
753,43	22,487
753,60	25,332
753,78	23,677
753,96	24,429
754,14	24,947
754,32	25,437
754,50	24,322
754,68	24,627
754,85	23,226
755,03	24,489
755,21	26,268
755,39	27,104
755,57	25,007
755,75	24,987
755,92	24,982
756,10	24,416
756,28	23,984
756,46	22,365
756,64	23,919
756,82	24,233
756,99	22,214
757,17	21,817
757,35	22,353
757,53	28,258
757,71	26,478
757,89	21,496
758,06	24,400
758,24	24,189
758,42	23,651
758,60	20,969
758,78	22,276
758,95	24,851
759,13	23,902
759,31	23,257
759,49	22,442
759,67	23,508
759,84	20,709
760,02	23,392
760,20	21,953
760,38	24,498
760,56	20,711
760,73	21,701
760,91	21,777
761,09	25,312
761,27	21,578
761,45	23,650
761,62	20,107
761,80	21,534
761,98	23,482
762,16	25,227
762,33	22,005
762,51	23,798
762,69	22,215
762,87	22,439
763,05	24,415
763,22	23,138
763,40	23,355
763,58	24,319
763,76	20,955
763,93	25,131
764,11	25,880
764,29	24,101
764,47	24,299
764,64	26,878
764,82	26,358
765,00	23,922
765,18	20,282
765,35	22,710
765,53	21,273
765,71	25,207
765,89	23,539
766,06	22,821
766,24	23,769
766,42	22,830
766,60	21,602
766,77	21,709
766,95	23,048
767,13	23,163
767,30	22,585
767,48	22,087
767,66	21,709
767,84	22,152
768,01	22,111
768,19	23,311
768,37	21,815
768,54	21,979
768,72	24,147
768,90	21,955
769,08	23,231
769,25	22,925
769,43	22,677
769,61	21,539
769,78	24,778
769,96	22,082
770,14	23,306
770,31	26,163
770,49	27,315
770,67	22,969
770,85	22,481
771,02	23,809
771,20	22,477
771,38	23,365
771,55	22,861
771,73	20,132
771,91	24,478
772,08	24,318
772,26	24,648
772,44	23,277
772,61	23,612
772,79	22,618
772,97	22,108
773,14	21,169
773,32	25,190
773,50	21,722
773,67	24,708
773,85	26,083
774,03	23,418
774,20	22,918
774,38	23,586
774,56	22,458
774,73	21,219
774,91	21,899
775,09	22,568
775,26	25,985
775,44	24,756
775,61	24,650
775,79	21,991
775,97	25,859
776,14	24,301
776,32	24,783
776,50	23,400
776,67	23,972
776,85	25,477
777,03	19,428
777,20	25,013
777,38	27,594
777,55	26,457
777,73	23,904
777,91	22,026
778,08	23,857
778,26	23,768
778,43	23,846
778,61	22,055
778,79	21,760
778,96	24,192
779,14	22,047
779,32	23,084
779,49	21,345
779,67	27,653
779,84	26,078
780,02	23,454
780,20	22,553
780,37	25,964
780,55	18,785
780,72	22,698
780,90	22,727
781,07	24,293
781,25	24,905
781,43	25,497
781,60	22,805
781,78	25,742
781,95	25,281
782,13	23,260
782,30	25,049
782,48	26,090
782,66	22,100
782,83	23,340
783,01	30,072
783,18	24,600
783,36	26,500
783,53	26,101
783,71	20,071
783,89	23,740
784,06	25,861
784,24	23,876
784,41	24,926
784,59	20,910
784,76	29,027
784,94	21,860
785,11	25,387
785,29	22,694
785,46	23,822
785,64	21,442
785,82	24,970
785,99	28,664
786,17	26,314
786,34	22,005
786,52	26,725
786,69	27,409
786,87	23,342
787,04	23,609
787,22	23,020
787,39	23,726
787,57	26,426
787,74	21,786
787,92	26,960
788,09	25,719
788,27	26,521
788,44	23,547
788,62	26,364
788,79	22,988
788,97	24,668
789,14	24,191
789,32	23,967
789,49	23,262
789,67	24,880
789,84	22,749
790,02	27,058
790,19	21,315
790,37	26,252
790,54	23,020
790,72	29,307
790,89	26,134
791,07	27,480
791,24	21,032
791,42	27,967
791,59	27,841
791,77	23,542
791,94	24,436
792,12	23,635
792,29	25,616
792,47	26,519
792,64	25,497
792,81	27,106
792,99	21,008
793,16	23,133
793,34	23,492
793,51	24,756
793,69	28,010
793,86	24,418
794,04	24,927
794,21	26,875
794,39	22,507
794,56	22,537
794,73	28,581
794,91	27,043
795,08	23,710
795,26	22,667
795,43	22,491
795,61	27,234
795,78	23,884
795,95	26,194
796,13	27,364
796,30	26,136
796,48	22,554
796,65	19,651
796,83	27,450
797,00	25,253
797,17	24,512
797,35	25,129
797,52	26,769
797,70	26,516
797,87	26,200
798,04	28,429
798,22	22,740
798,39	23,947
798,57	23,597
798,74	25,689
798,91	21,993
799,09	25,356
799,26	28,178
799,44	28,355
799,61	20,825
799,78	21,480
799,96	27,856
800,13	22,058
800,31	29,149
800,48	27,793
800,65	30,451
800,83	27,185
801,00	24,495
801,17	25,242
801,35	27,478
801,52	27,224
801,70	27,766
801,87	26,848
802,04	28,554
802,22	20,818
802,39	25,727
802,56	29,676
802,74	28,974
802,91	23,267
803,08	24,347
803,26	27,660
803,43	31,085
803,61	21,853
803,78	24,509
803,95	26,643
804,13	25,646
804,30	22,651
804,47	27,840
804,65	28,971
804,82	26,784
804,99	25,817
805,17	24,526
805,34	33,091
805,51	29,838
805,69	24,503
805,86	26,915
806,03	36,251
806,21	30,223
806,38	28,812
806,55	22,714
806,72	27,192
806,90	31,989
807,07	26,014
807,24	24,064
807,42	23,137
807,59	26,049
807,76	19,920
807,94	28,381
808,11	27,930
808,28	31,122
808,45	26,389
808,63	21,639
808,80	28,794
808,97	24,212
809,15	26,844
809,32	27,267
809,49	29,093
809,67	25,398
809,84	29,334
810,01	32,704
810,18	38,068
810,36	30,106
810,53	24,681
810,70	27,135
810,87	26,593
811,05	28,273
811,22	26,731
811,39	24,654
811,57	29,283
811,74	25,221
811,91	28,813
812,08	24,172
812,26	25,950
812,43	22,499
812,60	31,909
812,77	27,606
812,95	30,030
813,12	25,697
813,29	26,831
813,46	28,796
813,64	30,263
813,81	27,487
813,98	27,326
814,15	29,395
814,32	28,687
814,50	26,855
814,67	26,022
814,84	32,193
815,01	23,207
815,19	25,218
815,36	26,578
815,53	26,047
815,70	27,303
815,87	33,755
816,05	24,685
816,22	28,906
816,39	31,309
816,56	33,433
816,74	31,220
816,91	29,793
817,08	34,316
817,25	33,038
817,42	32,333
817,60	27,791
817,77	34,091
817,94	26,787
818,11	27,551
818,28	22,488
818,45	32,986
818,63	29,183
818,80	27,044
818,97	25,916
819,14	32,038
819,31	31,864
819,49	29,250
819,66	25,379
819,83	34,575
820,00	33,647
820,17	25,290
820,34	27,445
820,52	33,945
820,69	32,157
820,86	27,092
821,03	31,517
821,20	31,379
821,37	34,544
821,55	31,106
821,72	22,748
821,89	27,521
822,06	32,681
822,23	26,135
822,40	27,080
822,57	34,274
822,75	32,934
822,92	19,841
823,09	30,572
823,26	33,484
823,43	33,008
823,60	25,689
823,77	26,158
823,94	34,539
824,12	34,421
824,29	26,396
824,46	33,369
824,63	43,904
824,80	36,235
824,97	27,445
825,14	27,362
825,31	28,799
825,49	29,099
825,66	14,770
825,83	28,937
826,00	30,879
826,17	37,220
826,34	33,131
826,51	27,708
826,68	27,832
826,85	26,857
827,02	22,590
827,20	27,513
827,37	27,412
827,54	31,589
827,71	29,874
827,88	33,482
828,05	31,850
828,22	32,311
828,39	35,960
828,56	30,050
828,73	30,235
828,90	29,787
829,07	30,522
829,25	23,791
829,42	29,657
829,59	25,823
829,76	22,189
829,93	30,099
830,10	31,691
830,27	30,932
830,44	26,844
830,61	19,375
830,78	41,232
830,95	34,388
831,12	29,319
831,29	26,481
831,46	20,427
831,63	25,181
831,80	29,598
831,97	25,706
832,14	36,660
832,31	36,980
832,48	26,689
832,65	32,770
832,83	25,423
833,00	36,295
833,17	31,263
833,34	32,005
833,51	37,040
833,68	34,962
833,85	25,486
834,02	24,600
834,19	33,481
834,36	29,292
834,53	22,318
834,70	25,007
834,87	46,620
835,04	30,137
835,21	31,919
835,38	32,965
835,55	24,366
835,72	43,190
835,89	27,111
836,06	27,185
836,23	44,363
836,40	24,325
836,57	28,806
836,74	26,723
836,91	31,726
837,08	40,345
837,25	26,673
837,42	28,591
837,59	26,235
837,76	39,329
837,93	30,677
838,09	30,482
838,26	24,337
838,43	44,534
838,60	38,519
838,77	34,093
838,94	34,971
839,11	49,569
839,28	43,112
839,45	29,606
839,62	31,031
839,79	26,867
839,96	28,724
840,13	33,573
840,30	26,363
840,47	29,618
840,64	41,001
840,81	29,988
840,98	33,106
841,15	42,676
841,32	26,054
841,48	38,125
841,65	35,765
841,82	32,060
841,99	28,734
842,16	39,680
842,33	34,363
842,50	35,061
842,67	19,115
842,84	29,041
843,01	38,038
843,18	29,298
843,35	36,879
843,52	27,073
843,68	38,296
843,85	29,613
844,02	24,628
844,19	34,479
844,36	35,930
844,53	32,097
844,70	22,552
844,87	44,872
845,04	38,780
845,21	17,150
845,37	35,939
845,54	27,621
845,71	36,894
845,88	51,575
846,05	30,497
846,22	19,034
846,39	33,216
846,56	38,121
846,72	17,558
846,89	28,748
847,06	43,769
847,23	43,345
847,40	17,243
847,57	32,618
847,74	30,844
847,90	45,207
848,07	33,587
848,24	34,939
848,41	40,124
848,58	48,879
848,75	38,511
848,92	18,568
849,08	31,453
849,25	30,178
849,42	24,534
849,59	31,756
849,76	26,534
849,93	41,949
850,09	39,601
850,26	18,362
850,43	41,462
850,60	22,624
850,77	28,491
850,94	35,034
851,10	27,357
851,27	29,823
851,44	33,085
851,61	29,338
851,78	54,777
851,95	45,880
852,11	30,273
852,28	22,412
852,45	47,252
852,62	49,150
852,79	41,889
852,95	32,849
853,12	39,653
853,29	30,155
853,46	26,392
853,63	29,144
853,79	25,634
853,96	34,896
854,13	47,096
854,30	37,662
854,46	56,981
854,63	24,055
854,80	42,378
854,97	32,412
855,14	61,345
855,30	47,358
855,47	39,125
855,64	43,979
855,81	30,619
855,97	54,745
856,14	33,453
856,31	25,097
856,48	56,803
856,65	61,479
856,81	45,840
856,98	27,179
857,15	23,540
857,32	55,704
857,48	35,504
857,65	55,356
857,82	46,188
857,99	38,335
858,15	45,251
858,32	33,824
858,49	25,921
858,65	61,375
858,82	34,242
858,99	40,858
859,16	43,627
859,32	40,457
859,49	46,418
859,66	43,583
859,83	44,068
859,99	33,618
860,16	31,163
860,33	38,681
860,49	40,836
860,66	31,990
860,83	36,056
861,00	38,892
861,16	57,047
861,33	54,918
861,50	18,100
861,66	48,135
861,83	53,139
862,00	42,988
862,16	34,019
862,33	40,247
862,50	80,226
862,67	45,006
862,83	38,436
863,00	38,160
863,17	54,553
863,33	42,785
863,50	18,541
863,67	48,777
863,83	56,079
864,00	49,421
864,17	45,343
864,33	18,558
864,50	27,885
864,67	54,747
864,83	21,687
865,00	48,440
865,17	40,965
865,33	55,967
865,50	29,724
865,67	44,521
865,83	57,406
866,00	68,910
866,17	42,039
866,33	53,599
866,50	27,933
866,66	43,377
866,83	41,583
867,00	57,510
867,16	67,807
867,33	85,097
867,50	38,632
867,66	61,639
867,83	42,697
868,00	49,323
868,16	46,361
868,33	50,731
868,49	37,247
868,66	55,905
868,83	62,391
868,99	47,591
869,16	70,129
869,32	56,246
869,49	43,193
869,66	40,112
869,82	73,708
869,99	66,731
870,15	58,003
870,32	56,533
870,49	115,544
870,65	89,175
870,82	51,444
870,98	55,557
871,15	77,826
871,32	67,965
871,48	47,265
871,65	39,119
871,81	44,964
871,98	17,646
872,15	29,086
872,31	45,470
872,48	79,686
872,64	45,039
872,81	50,390
872,97	31,509
873,14	103,103
873,31	70,422
873,47	47,417
873,64	73,684
873,80	91,906
873,97	98,939
874,13	57,083
874,30	33,194
874,46	60,420
874,63	65,621
874,80	42,393
874,96	32,914
875,13	74,286
875,29	57,660
875,46	71,573
875,62	34,824
875,79	92,490
875,95	55,501
876,12	24,911
876,28	24,454
876,45	118,832
876,61	58,274
876,78	41,017
876,94	26,007
877,11	78,024
877,27	147,287
877,44	62,916
877,60	59,292
877,77	65,345
877,94	162,626
878,10	45,490
878,27	58,153
878,43	124,779
878,60	57,247
878,76	75,778
878,93	88,879
879,09	46,952
879,26	90,200
879,42	78,630
879,58	61,038
879,75	112,842
879,91	114,944
880,08	33,759
880,24	51,480
880,41	17,022
880,57	68,113
880,74	123,321
880,90	58,699
881,07	56,537
881,23	140,260
881,40	64,527
881,56	60,038
881,73	137,852
881,89	80,435
882,06	57,993
882,22	147,455
882,38	121,000
882,55	165,699
882,71	66,248
882,88	69,235
883,04	90,258
883,21	109,904
883,37	133,627
883,54	65,658
883,70	197,701
883,86	116,828
884,03	98,103
884,19	80,808
884,36	118,511
884,52	134,725
884,69	119,576
884,85	22,745
885,01	90,277
885,18	144,244
885,34	79,265
885,51	22,444
885,67	74,097
>>>>> Data<<<<< Espectral Procesado Extremo
