Fichero De Datos De SpectraSuite
++++++++++++++++++++++++++++++++++++
Fecha: Wed Apr 22 08:36:21 CEST 2009
Usuario: evoflor
Presente Oscuro Del Espectro: Sí
La Referencia de Presente Del Espectro De: Sí
Muestreados de los componentes de Número de espectros: 1
Espectrómetros: USB4F02353
Tiempo de integración (usec): 500000 (USB4F02353)
Promedio de Espectros Hechos un: 5 (USB4F02353)
El Alisar Del Furgón: 0 (USB4F02353)
Párrafo de de Corregir del la del del de Eléctrica del obscuridad: Sí (USB4F02353)
Estrobo/Lámpara Permitido: No (USB4F02353)
Correct for Detector Non-linearity: No (USB4F02353)
Párrafo de de Corregir del la del del de Externa del luz: No (USB4F02353)
Procesado del espectro de Número de pixeles en: 3648
>>>>> Comienza Data<<<<< Espectral Procesado Del EL
177,79	900,112
178,00	900,112
178,22	900,112
178,44	-9555,140
178,66	573,848
178,88	189,818
179,09	-1462,211
179,31	230,352
179,53	-6724,684
179,75	452,722
179,96	95,384
180,18	256,738
180,40	-380,247
180,62	-126,198
180,83	441,376
181,05	-698,241
181,27	-198,784
181,49	192,538
181,70	-218,622
181,92	401,637
182,14	155,718
182,36	-1574,203
182,58	184,482
182,79	-850,575
183,01	-13188,258
183,23	413,862
183,45	-10,571
183,66	117,517
183,88	836,522
184,10	707,761
184,32	838,102
184,53	-271,998
184,75	825,680
184,97	-217,280
185,18	1177,514
185,40	262,981
185,62	-890,981
185,84	1884,112
186,05	4372,588
186,27	-5650,057
186,49	-708,564
186,71	317,900
186,92	555,693
187,14	1493,084
187,36	324,900
187,58	493,931
187,79	-798,841
188,01	-1112,277
188,23	102,258
188,45	83,217
188,66	55,735
188,88	265,462
189,10	-333,938
189,31	-132,448
189,53	150,655
189,75	873,052
189,97	134,268
190,18	727,842
190,40	1533,001
190,62	316,786
190,83	405,718
191,05	-101,023
191,27	7604,921
191,49	575,917
191,70	758,378
191,92	571,278
192,14	494,692
192,35	-1615,807
192,57	-1197,605
192,79	-1914,850
193,01	516,774
193,22	-819,107
193,44	-765,727
193,66	341,841
193,87	349,098
194,09	111,030
194,31	214,018
194,53	-364,041
194,74	538,959
194,96	86,413
195,18	665,129
195,39	-1595,712
195,61	-351,561
195,83	4293,533
196,04	216,457
196,26	119,064
196,48	2340,327
196,70	528,826
196,91	198,301
197,13	-106,429
197,35	218,141
197,56	-469,237
197,78	4962,917
198,00	264,866
198,21	497,082
198,43	892,382
198,65	269,471
198,86	113,097
199,08	652,183
199,30	197,518
199,51	602,048
199,73	-1222,835
199,95	256,935
200,16	659,871
200,38	212,609
200,60	2197,983
200,81	-463,544
201,03	15364,593
201,25	502,839
201,46	-727,863
201,68	630,542
201,90	517,281
202,11	139,923
202,33	163,428
202,55	163,388
202,76	584,125
202,98	587,871
203,20	249,539
203,41	-976,720
203,63	553,651
203,85	153,349
204,06	-614,123
204,28	137,326
204,50	-181,631
204,71	462,390
204,93	244,909
205,15	105,767
205,36	-186,707
205,58	1847,452
205,80	-3003,412
206,01	-4170,646
206,23	295,542
206,45	433,381
206,66	284,205
206,88	-296,884
207,10	1707,216
207,31	-52378,808
207,53	413,336
207,75	-419,620
207,96	301,772
208,18	248,571
208,39	311,408
208,61	443,194
208,83	7835,522
209,04	368,347
209,26	527,581
209,48	90,953
209,69	-104,883
209,91	960,161
210,13	5,278
210,34	160,284
210,56	344,961
210,77	2259,496
210,99	399,740
211,21	-280,682
211,42	176,942
211,64	681,619
211,86	372,250
212,07	199,061
212,29	625,234
212,50	1141,868
212,72	224,552
212,94	370,673
213,15	-14,295
213,37	341,044
213,58	164,218
213,80	379,615
214,02	2897,762
214,23	230,622
214,45	294,982
214,67	30,212
214,88	-82,788
215,10	1249,462
215,31	337,137
215,53	57,845
215,75	456,138
215,96	537,385
216,18	147,967
216,39	315,842
216,61	460,875
216,83	1105,061
217,04	463,661
217,26	28,499
217,47	-2,591
217,69	229,851
217,91	80,489
218,12	1444,208
218,34	107,389
218,55	245,417
218,77	-0,416
218,99	140,224
219,20	153,214
219,42	411,649
219,63	74,335
219,85	335,915
220,06	-470,862
220,28	157,723
220,50	39,839
220,71	129,487
220,93	468,141
221,14	422,184
221,36	80,794
221,58	121,336
221,79	54,284
222,01	276,484
222,22	239,074
222,44	50,867
222,65	360,655
222,87	-28,795
223,09	83,666
223,30	28,392
223,52	429,271
223,73	116,393
223,95	37,927
224,16	51,930
224,38	64,884
224,60	76,378
224,81	73,275
225,03	67,185
225,24	80,924
225,46	10,372
225,67	33,239
225,89	89,416
226,10	154,834
226,32	159,294
226,54	13,250
226,75	-12,110
226,97	142,801
227,18	96,342
227,40	93,649
227,61	67,872
227,83	35,291
228,04	105,678
228,26	72,808
228,47	13,362
228,69	88,129
228,91	81,103
229,12	131,668
229,34	18,917
229,55	68,130
229,77	33,747
229,98	30,049
230,20	37,537
230,41	-8,991
230,63	61,883
230,84	33,593
231,06	62,594
231,27	14,072
231,49	44,021
231,71	20,638
231,92	4,395
232,14	0,417
232,35	39,091
232,57	25,088
232,78	14,816
233,00	22,181
233,21	21,066
233,43	21,821
233,64	9,156
233,86	27,750
234,07	37,227
234,29	15,365
234,50	2,609
234,72	28,454
234,93	14,051
235,15	-2,098
235,36	20,347
235,58	39,746
235,79	30,062
236,01	13,259
236,22	18,911
236,44	30,302
236,65	12,827
236,87	12,061
237,08	9,282
237,30	-2,516
237,51	25,861
237,73	12,883
237,94	-0,183
238,16	15,316
238,37	2,996
238,59	6,666
238,80	12,086
239,02	8,397
239,23	23,472
239,45	3,974
239,66	22,991
239,88	18,712
240,09	15,230
240,31	10,477
240,52	5,295
240,74	12,939
240,95	15,902
241,17	8,791
241,38	11,897
241,60	-0,199
241,81	20,308
242,03	0,751
242,24	11,243
242,46	7,290
242,67	-2,037
242,89	10,519
243,10	10,488
243,32	15,830
243,53	13,342
243,75	4,838
243,96	10,924
244,18	10,712
244,39	13,548
244,60	2,339
244,82	4,357
245,03	15,306
245,25	8,120
245,46	19,167
245,68	5,419
245,89	28,518
246,11	19,680
246,32	8,214
246,54	10,099
246,75	3,107
246,97	17,919
247,18	19,011
247,39	7,067
247,61	13,907
247,82	14,633
248,04	3,191
248,25	-0,021
248,47	4,875
248,68	6,179
248,90	7,124
249,11	11,205
249,33	16,791
249,54	10,534
249,75	11,297
249,97	1,493
250,18	17,792
250,40	12,355
250,61	4,983
250,83	1,981
251,04	6,787
251,25	12,363
251,47	11,445
251,68	3,115
251,90	7,007
252,11	7,540
252,33	7,071
252,54	6,393
252,76	2,083
252,97	-0,682
253,18	4,908
253,40	10,003
253,61	5,579
253,83	5,719
254,04	9,164
254,25	3,852
254,47	1,179
254,68	8,989
254,90	1,147
255,11	2,031
255,33	7,237
255,54	4,015
255,75	4,482
255,97	6,511
256,18	3,612
256,40	6,755
256,61	9,187
256,82	3,681
257,04	8,789
257,25	3,869
257,47	7,974
257,68	8,066
257,89	5,097
258,11	4,721
258,32	12,265
258,54	2,293
258,75	15,245
258,96	6,156
259,18	8,874
259,39	2,205
259,61	8,478
259,82	1,811
260,03	1,235
260,25	8,892
260,46	6,067
260,68	4,575
260,89	4,176
261,10	9,315
261,32	0,984
261,53	-1,638
261,75	7,270
261,96	5,535
262,17	15,572
262,39	9,994
262,60	2,579
262,81	2,163
263,03	8,953
263,24	10,387
263,46	5,056
263,67	6,325
263,88	7,237
264,10	4,661
264,31	3,924
264,52	3,758
264,74	8,938
264,95	4,323
265,17	8,162
265,38	6,118
265,59	11,859
265,81	8,520
266,02	0,302
266,23	1,241
266,45	10,490
266,66	7,246
266,87	4,524
267,09	5,093
267,30	10,164
267,52	10,983
267,73	5,794
267,94	2,236
268,16	4,827
268,37	1,390
268,58	7,056
268,80	-0,261
269,01	6,947
269,22	7,700
269,44	7,079
269,65	7,855
269,86	5,330
270,08	6,439
270,29	2,185
270,50	2,690
270,72	5,145
270,93	2,684
271,14	1,448
271,36	3,471
271,57	5,756
271,78	5,494
272,00	1,905
272,21	9,884
272,42	4,083
272,64	10,451
272,85	0,290
273,06	2,686
273,28	3,739
273,49	2,867
273,70	6,206
273,92	6,351
274,13	3,638
274,34	-0,552
274,56	9,234
274,77	5,765
274,98	8,215
275,20	9,236
275,41	5,792
275,62	1,809
275,84	5,598
276,05	12,300
276,26	3,477
276,47	3,398
276,69	10,278
276,90	9,363
277,11	5,283
277,33	0,010
277,54	8,742
277,75	6,296
277,97	0,976
278,18	2,760
278,39	10,002
278,61	2,292
278,82	10,293
279,03	6,718
279,24	3,777
279,46	9,237
279,67	9,245
279,88	3,922
280,10	9,557
280,31	3,553
280,52	3,482
280,73	3,136
280,95	8,057
281,16	5,623
281,37	4,401
281,59	4,911
281,80	7,858
282,01	2,069
282,22	3,371
282,44	3,635
282,65	13,333
282,86	4,929
283,08	2,471
283,29	4,846
283,50	1,356
283,71	5,285
283,93	6,851
284,14	2,322
284,35	6,553
284,56	4,123
284,78	0,345
284,99	5,365
285,20	11,593
285,42	2,045
285,63	3,270
285,84	0,805
286,05	2,844
286,27	4,444
286,48	7,156
286,69	2,937
286,90	4,116
287,12	4,272
287,33	2,355
287,54	3,331
287,75	9,260
287,97	3,729
288,18	3,268
288,39	3,430
288,60	5,030
288,82	2,264
289,03	4,588
289,24	5,933
289,45	7,389
289,67	5,395
289,88	3,027
290,09	8,349
290,30	5,937
290,52	2,250
290,73	-0,353
290,94	2,821
291,15	3,959
291,37	5,331
291,58	3,575
291,79	5,272
292,00	4,083
292,21	4,111
292,43	6,988
292,64	1,917
292,85	4,307
293,06	7,290
293,28	1,900
293,49	2,635
293,70	8,944
293,91	1,326
294,12	3,464
294,34	4,765
294,55	6,431
294,76	5,802
294,97	6,627
295,19	3,388
295,40	4,342
295,61	5,970
295,82	5,158
296,03	5,217
296,25	5,930
296,46	1,256
296,67	3,249
296,88	5,065
297,09	3,116
297,31	1,342
297,52	5,813
297,73	2,841
297,94	4,860
298,15	7,103
298,37	3,100
298,58	3,598
298,79	4,294
299,00	-1,211
299,21	3,006
299,43	0,652
299,64	7,686
299,85	3,300
300,06	1,177
300,27	1,718
300,49	7,603
300,70	7,493
300,91	2,297
301,12	3,392
301,33	8,776
301,54	2,974
301,76	5,980
301,97	3,785
302,18	5,703
302,39	7,195
302,60	2,556
302,82	3,272
303,03	8,804
303,24	4,919
303,45	5,370
303,66	5,861
303,87	2,517
304,09	5,688
304,30	2,054
304,51	3,702
304,72	0,662
304,93	5,962
305,14	1,917
305,36	3,692
305,57	1,542
305,78	6,261
305,99	3,952
306,20	3,703
306,41	0,638
306,62	1,269
306,84	3,841
307,05	5,510
307,26	3,095
307,47	8,067
307,68	3,706
307,89	2,575
308,11	4,736
308,32	3,837
308,53	2,912
308,74	2,274
308,95	1,745
309,16	5,907
309,37	4,490
309,59	2,644
309,80	3,567
310,01	5,196
310,22	5,632
310,43	5,060
310,64	4,726
310,85	6,126
311,06	1,086
311,28	4,116
311,49	4,191
311,70	7,544
311,91	2,734
312,12	1,585
312,33	1,669
312,54	4,681
312,75	7,619
312,97	4,151
313,18	5,553
313,39	2,614
313,60	3,472
313,81	3,325
314,02	5,224
314,23	6,902
314,44	2,685
314,65	2,299
314,87	1,108
315,08	2,613
315,29	2,111
315,50	6,424
315,71	9,395
315,92	5,994
316,13	1,142
316,34	4,317
316,55	6,439
316,77	0,644
316,98	1,211
317,19	3,470
317,40	6,409
317,61	6,728
317,82	6,451
318,03	0,816
318,24	3,389
318,45	7,491
318,66	4,669
318,87	2,069
319,09	4,769
319,30	6,042
319,51	6,246
319,72	5,397
319,93	4,116
320,14	5,117
320,35	6,713
320,56	1,228
320,77	5,415
320,98	7,691
321,19	9,109
321,40	4,338
321,62	4,948
321,83	-1,605
322,04	4,642
322,25	6,706
322,46	7,231
322,67	7,019
322,88	7,100
323,09	4,768
323,30	7,728
323,51	9,093
323,72	3,431
323,93	2,134
324,14	2,570
324,35	-2,631
324,56	3,052
324,77	2,415
324,99	4,344
325,20	0,974
325,41	4,241
325,62	5,242
325,83	-0,479
326,04	1,504
326,25	3,694
326,46	1,338
326,67	3,421
326,88	4,887
327,09	2,361
327,30	5,185
327,51	4,041
327,72	3,202
327,93	3,763
328,14	3,525
328,35	5,929
328,56	4,670
328,77	5,823
328,98	4,548
329,19	2,104
329,40	5,645
329,61	2,582
329,82	-0,082
330,04	5,790
330,25	4,660
330,46	4,935
330,67	2,949
330,88	6,096
331,09	3,003
331,30	5,809
331,51	3,913
331,72	6,199
331,93	5,014
332,14	3,250
332,35	6,870
332,56	3,993
332,77	7,103
332,98	1,193
333,19	5,732
333,40	5,029
333,61	4,109
333,82	5,403
334,03	4,374
334,24	11,045
334,45	3,291
334,66	5,506
334,87	2,817
335,08	2,152
335,29	2,440
335,50	3,511
335,71	0,360
335,92	7,787
336,13	5,332
336,34	0,176
336,55	3,429
336,76	7,258
336,97	3,392
337,18	4,251
337,39	4,757
337,60	5,268
337,81	4,692
338,02	3,871
338,23	3,387
338,44	5,505
338,65	1,697
338,86	5,762
339,07	5,680
339,28	2,487
339,49	4,644
339,70	0,889
339,91	3,873
340,11	8,897
340,32	4,176
340,53	4,041
340,74	-0,247
340,95	1,408
341,16	3,740
341,37	4,074
341,58	4,844
341,79	2,873
342,00	3,797
342,21	-0,284
342,42	2,722
342,63	8,091
342,84	5,040
343,05	3,595
343,26	8,794
343,47	6,584
343,68	3,042
343,89	1,262
344,10	1,226
344,31	3,564
344,52	4,618
344,73	1,456
344,94	0,665
345,14	4,901
345,35	4,053
345,56	0,685
345,77	1,594
345,98	3,445
346,19	5,433
346,40	6,494
346,61	-0,012
346,82	2,519
347,03	6,653
347,24	1,298
347,45	4,047
347,66	7,216
347,87	2,883
348,08	7,009
348,28	3,981
348,49	2,187
348,70	6,319
348,91	4,647
349,12	3,680
349,33	-2,818
349,54	5,410
349,75	7,707
349,96	3,070
350,17	7,402
350,38	1,935
350,59	3,508
350,80	2,136
351,00	0,994
351,21	11,888
351,42	1,128
351,63	4,110
351,84	4,106
352,05	6,608
352,26	4,737
352,47	3,191
352,68	6,746
352,89	4,963
353,09	1,298
353,30	0,929
353,51	2,383
353,72	9,656
353,93	8,207
354,14	2,941
354,35	3,895
354,56	9,015
354,77	1,310
354,98	0,796
355,18	3,394
355,39	9,747
355,60	-0,119
355,81	6,090
356,02	2,193
356,23	4,283
356,44	4,262
356,65	3,614
356,85	9,069
357,06	8,560
357,27	4,874
357,48	1,276
357,69	7,122
357,90	6,156
358,11	-0,500
358,32	1,537
358,52	7,180
358,73	3,353
358,94	3,302
359,15	1,965
359,36	8,376
359,57	3,170
359,78	7,617
359,98	5,178
360,19	1,778
360,40	2,234
360,61	7,468
360,82	4,691
361,03	12,164
361,24	14,855
361,44	1,059
361,65	5,162
361,86	1,511
362,07	5,574
362,28	8,895
362,49	3,622
362,70	5,942
362,90	3,534
363,11	3,229
363,32	1,885
363,53	3,354
363,74	8,551
363,95	6,692
364,15	0,245
364,36	6,641
364,57	3,443
364,78	2,302
364,99	2,581
365,20	5,037
365,40	8,718
365,61	4,455
365,82	4,276
366,03	9,657
366,24	0,579
366,45	-0,984
366,65	1,066
366,86	3,741
367,07	1,080
367,28	0,910
367,49	0,988
367,69	6,607
367,90	3,796
368,11	5,554
368,32	2,812
368,53	8,124
368,73	3,536
368,94	5,765
369,15	6,807
369,36	6,310
369,57	4,712
369,78	5,937
369,98	4,709
370,19	7,569
370,40	2,934
370,61	4,120
370,82	6,719
371,02	8,170
371,23	3,340
371,44	4,614
371,65	4,513
371,85	8,125
372,06	2,771
372,27	5,058
372,48	1,864
372,69	7,709
372,89	4,862
373,10	4,232
373,31	5,383
373,52	5,032
373,73	7,625
373,93	6,849
374,14	6,224
374,35	4,301
374,56	3,918
374,76	6,055
374,97	3,834
375,18	9,931
375,39	4,290
375,60	6,074
375,80	6,176
376,01	2,625
376,22	7,558
376,43	4,572
376,63	3,759
376,84	5,668
377,05	5,260
377,26	1,634
377,46	2,879
377,67	4,519
377,88	-1,336
378,09	5,186
378,29	6,444
378,50	2,917
378,71	5,077
378,92	-0,099
379,12	0,530
379,33	4,587
379,54	5,733
379,75	8,108
379,95	5,010
380,16	3,695
380,37	3,864
380,58	1,934
380,78	7,271
380,99	2,538
381,20	5,202
381,41	7,462
381,61	4,351
381,82	8,179
382,03	5,309
382,24	6,246
382,44	3,813
382,65	3,819
382,86	11,261
383,06	7,425
383,27	5,741
383,48	3,410
383,69	7,068
383,89	3,248
384,10	1,861
384,31	4,071
384,51	6,762
384,72	7,351
384,93	4,569
385,14	0,989
385,34	2,975
385,55	3,776
385,76	1,266
385,96	10,719
386,17	5,250
386,38	3,349
386,59	10,667
386,79	8,688
387,00	11,782
387,21	8,081
387,41	8,501
387,62	5,012
387,83	10,214
388,03	3,717
388,24	6,213
388,45	4,610
388,66	8,284
388,86	5,621
389,07	5,688
389,28	15,587
389,48	6,865
389,69	7,083
389,90	2,955
390,10	2,510
390,31	11,371
390,52	6,789
390,72	6,876
390,93	10,059
391,14	7,449
391,34	8,607
391,55	6,768
391,76	11,117
391,96	11,254
392,17	6,213
392,38	5,036
392,58	7,928
392,79	6,478
393,00	5,046
393,20	7,698
393,41	8,549
393,62	10,585
393,82	7,379
394,03	8,278
394,24	6,049
394,44	11,417
394,65	12,581
394,86	8,669
395,06	12,107
395,27	11,598
395,48	9,648
395,68	5,218
395,89	9,570
396,10	12,113
396,30	7,216
396,51	5,963
396,72	11,404
396,92	4,778
397,13	13,173
397,34	6,684
397,54	9,977
397,75	8,572
397,95	7,144
398,16	9,775
398,37	9,959
398,57	5,001
398,78	8,232
398,99	12,584
399,19	13,655
399,40	17,607
399,60	12,906
399,81	14,230
400,02	15,526
400,22	14,172
400,43	14,789
400,64	10,191
400,84	8,621
401,05	13,767
401,25	15,735
401,46	9,532
401,67	15,716
401,87	10,438
402,08	9,313
402,29	13,411
402,49	20,209
402,70	16,019
402,90	11,522
403,11	15,979
403,32	9,632
403,52	11,617
403,73	11,166
403,93	17,720
404,14	22,810
404,35	13,353
404,55	10,682
404,76	15,602
404,96	16,938
405,17	17,698
405,38	20,258
405,58	15,681
405,79	19,062
405,99	22,095
406,20	14,933
406,40	15,716
406,61	18,722
406,82	16,287
407,02	16,215
407,23	12,991
407,43	15,310
407,64	12,892
407,85	17,928
408,05	14,864
408,26	28,257
408,46	24,575
408,67	18,814
408,87	18,167
409,08	15,790
409,29	25,880
409,49	22,157
409,70	17,508
409,90	20,713
410,11	20,492
410,31	23,216
410,52	21,315
410,72	18,875
410,93	22,361
411,14	19,919
411,34	15,762
411,55	19,848
411,75	22,432
411,96	22,853
412,16	20,429
412,37	19,843
412,57	20,912
412,78	25,962
412,99	21,151
413,19	23,555
413,40	22,443
413,60	18,996
413,81	21,029
414,01	20,290
414,22	21,277
414,42	20,613
414,63	20,686
414,83	20,035
415,04	28,810
415,24	25,708
415,45	22,178
415,65	21,715
415,86	28,858
416,07	22,284
416,27	25,132
416,48	26,154
416,68	31,332
416,89	21,894
417,09	24,860
417,30	31,036
417,50	19,493
417,71	29,927
417,91	24,728
418,12	25,404
418,32	26,216
418,53	22,299
418,73	24,834
418,94	25,525
419,14	29,345
419,35	23,369
419,55	25,731
419,76	28,184
419,96	26,981
420,17	26,260
420,37	22,765
420,58	27,147
420,78	29,292
420,99	22,992
421,19	31,770
421,40	32,654
421,60	31,465
421,81	24,929
422,01	28,418
422,22	28,573
422,42	31,123
422,63	29,695
422,83	28,646
423,04	33,350
423,24	39,066
423,45	28,436
423,65	25,944
423,86	33,745
424,06	30,542
424,27	23,776
424,47	28,151
424,67	24,555
424,88	31,806
425,08	26,947
425,29	32,224
425,49	24,153
425,70	26,884
425,90	29,715
426,11	29,740
426,31	29,784
426,52	30,223
426,72	29,191
426,93	25,330
427,13	35,134
427,33	24,422
427,54	30,399
427,74	31,829
427,95	33,688
428,15	29,684
428,36	26,659
428,56	26,252
428,77	31,542
428,97	30,483
429,18	28,126
429,38	27,369
429,58	28,417
429,79	33,444
429,99	26,818
430,20	28,265
430,40	34,197
430,61	25,930
430,81	28,598
431,01	31,715
431,22	33,325
431,42	30,082
431,63	26,906
431,83	29,350
432,04	30,841
432,24	31,889
432,44	30,630
432,65	29,949
432,85	31,132
433,06	32,372
433,26	28,896
433,47	31,320
433,67	27,392
433,87	30,341
434,08	29,421
434,28	28,323
434,49	29,910
434,69	35,251
434,89	33,187
435,10	30,950
435,30	34,684
435,51	28,428
435,71	28,013
435,91	30,427
436,12	29,938
436,32	29,170
436,53	28,441
436,73	29,447
436,93	32,137
437,14	29,912
437,34	31,134
437,55	26,348
437,75	32,701
437,95	33,045
438,16	26,881
438,36	30,430
438,57	29,026
438,77	30,051
438,97	31,597
439,18	30,927
439,38	30,094
439,58	27,873
439,79	29,483
439,99	26,197
440,20	35,093
440,40	34,237
440,60	31,249
440,81	30,694
441,01	31,940
441,21	32,114
441,42	32,006
441,62	33,131
441,83	31,560
442,03	30,732
442,23	33,393
442,44	32,818
442,64	34,874
442,84	28,111
443,05	32,236
443,25	29,490
443,45	31,741
443,66	31,819
443,86	27,446
444,06	31,524
444,27	29,983
444,47	40,285
444,67	35,035
444,88	31,590
445,08	30,875
445,28	28,032
445,49	36,414
445,69	32,633
445,90	33,723
446,10	34,271
446,30	31,172
446,51	29,046
446,71	33,010
446,91	33,342
447,12	38,997
447,32	30,245
447,52	33,913
447,72	36,522
447,93	27,621
448,13	28,328
448,33	36,779
448,54	36,652
448,74	28,312
448,94	30,343
449,15	37,994
449,35	28,500
449,55	37,225
449,76	31,351
449,96	30,378
450,16	32,733
450,37	30,563
450,57	32,008
450,77	30,561
450,98	29,379
451,18	33,101
451,38	31,576
451,58	36,610
451,79	28,438
451,99	31,293
452,19	34,741
452,40	40,246
452,60	29,966
452,80	34,176
453,00	34,191
453,21	28,444
453,41	35,152
453,61	28,581
453,82	33,205
454,02	30,162
454,22	48,080
454,42	33,315
454,63	29,779
454,83	29,014
455,03	35,628
455,24	31,691
455,44	35,932
455,64	32,438
455,84	31,504
456,05	30,895
456,25	29,112
456,45	29,651
456,65	32,747
456,86	36,112
457,06	35,565
457,26	34,578
457,47	39,146
457,67	32,750
457,87	30,023
458,07	33,386
458,28	35,291
458,48	38,029
458,68	30,265
458,88	41,122
459,09	31,489
459,29	36,976
459,49	28,191
459,69	34,552
459,90	33,640
460,10	32,745
460,30	37,506
460,50	31,506
460,71	34,478
460,91	27,754
461,11	36,435
461,31	32,860
461,52	37,068
461,72	32,302
461,92	28,367
462,12	37,624
462,32	29,326
462,53	28,989
462,73	30,461
462,93	31,916
463,13	33,928
463,34	31,168
463,54	34,909
463,74	31,433
463,94	28,441
464,14	33,919
464,35	29,458
464,55	38,591
464,75	38,875
464,95	30,856
465,16	30,461
465,36	39,581
465,56	29,296
465,76	30,904
465,96	29,333
466,17	29,738
466,37	28,805
466,57	35,478
466,77	34,554
466,97	30,095
467,18	35,419
467,38	33,860
467,58	36,221
467,78	35,047
467,98	33,325
468,19	30,240
468,39	33,860
468,59	29,847
468,79	32,986
468,99	34,337
469,19	32,283
469,40	31,946
469,60	30,060
469,80	28,282
470,00	32,276
470,20	35,656
470,41	30,894
470,61	35,407
470,81	36,308
471,01	32,347
471,21	35,184
471,41	35,152
471,62	33,089
471,82	31,783
472,02	31,106
472,22	32,331
472,42	32,197
472,62	35,558
472,83	27,738
473,03	35,832
473,23	31,260
473,43	34,153
473,63	34,930
473,83	28,728
474,03	35,406
474,24	36,495
474,44	31,637
474,64	32,451
474,84	26,378
475,04	31,221
475,24	35,769
475,45	30,977
475,65	32,141
475,85	35,530
476,05	25,014
476,25	31,164
476,45	32,270
476,65	34,421
476,85	31,520
477,06	34,231
477,26	29,390
477,46	31,744
477,66	32,504
477,86	34,574
478,06	32,793
478,26	40,912
478,46	30,980
478,67	36,187
478,87	32,058
479,07	31,205
479,27	34,925
479,47	31,955
479,67	27,063
479,87	28,178
480,07	35,669
480,28	31,066
480,48	29,269
480,68	33,941
480,88	38,888
481,08	36,428
481,28	34,157
481,48	31,091
481,68	33,138
481,88	29,810
482,08	30,625
482,29	33,309
482,49	29,120
482,69	30,812
482,89	28,232
483,09	36,457
483,29	29,589
483,49	30,951
483,69	32,108
483,89	32,793
484,09	29,021
484,29	28,856
484,50	31,331
484,70	33,696
484,90	31,385
485,10	32,743
485,30	32,083
485,50	36,889
485,70	31,826
485,90	28,369
486,10	28,474
486,30	28,630
486,50	29,411
486,70	26,995
486,90	30,596
487,10	32,119
487,30	30,891
487,51	30,751
487,71	30,279
487,91	30,731
488,11	34,043
488,31	28,912
488,51	30,606
488,71	28,305
488,91	31,773
489,11	31,401
489,31	29,606
489,51	31,198
489,71	29,422
489,91	28,408
490,11	31,285
490,31	32,948
490,51	32,835
490,71	33,103
490,91	30,805
491,11	31,474
491,31	34,354
491,51	32,382
491,72	28,313
491,92	32,656
492,12	32,158
492,32	32,474
492,52	33,183
492,72	28,315
492,92	30,879
493,12	30,720
493,32	28,137
493,52	29,297
493,72	31,781
493,92	31,790
494,12	28,301
494,32	31,817
494,52	31,295
494,72	30,757
494,92	29,201
495,12	32,617
495,32	36,067
495,52	33,142
495,72	31,433
495,92	32,719
496,12	32,506
496,32	32,205
496,52	31,193
496,72	32,798
496,92	32,347
497,12	32,934
497,32	33,436
497,52	31,007
497,72	32,942
497,92	31,577
498,12	31,758
498,32	33,027
498,52	32,328
498,72	29,893
498,92	31,743
499,12	32,144
499,32	30,771
499,52	33,835
499,72	31,643
499,92	34,239
500,12	32,509
500,32	30,941
500,52	32,673
500,72	34,696
500,91	35,330
501,11	31,840
501,31	30,257
501,51	32,155
501,71	34,807
501,91	32,562
502,11	30,490
502,31	31,850
502,51	34,226
502,71	33,417
502,91	29,332
503,11	32,941
503,31	35,048
503,51	29,154
503,71	31,412
503,91	33,900
504,11	29,654
504,31	32,323
504,51	30,893
504,71	36,989
504,91	28,637
505,10	32,405
505,30	30,401
505,50	31,512
505,70	30,839
505,90	34,441
506,10	29,437
506,30	31,202
506,50	33,725
506,70	33,489
506,90	31,282
507,10	31,451
507,30	28,941
507,50	32,407
507,70	35,683
507,89	34,621
508,09	31,684
508,29	31,355
508,49	31,274
508,69	32,182
508,89	32,269
509,09	30,893
509,29	31,397
509,49	34,331
509,69	33,547
509,89	33,102
510,09	33,498
510,28	32,468
510,48	31,989
510,68	29,138
510,88	31,991
511,08	31,831
511,28	30,776
511,48	32,441
511,68	27,781
511,88	37,419
512,07	31,672
512,27	30,697
512,47	32,356
512,67	29,404
512,87	28,300
513,07	31,552
513,27	30,168
513,47	32,413
513,67	28,679
513,86	31,947
514,06	31,913
514,26	30,909
514,46	34,832
514,66	30,825
514,86	32,860
515,06	37,024
515,26	33,270
515,45	31,458
515,65	30,679
515,85	33,013
516,05	30,868
516,25	31,517
516,45	33,617
516,65	30,164
516,84	32,882
517,04	34,488
517,24	32,020
517,44	33,125
517,64	33,916
517,84	34,689
518,04	32,866
518,23	33,910
518,43	35,189
518,63	32,255
518,83	28,144
519,03	32,596
519,23	31,311
519,42	32,135
519,62	32,924
519,82	29,044
520,02	30,583
520,22	33,808
520,42	29,981
520,61	34,801
520,81	32,018
521,01	32,880
521,21	31,478
521,41	30,769
521,61	35,487
521,80	30,496
522,00	30,335
522,20	34,597
522,40	31,051
522,60	31,231
522,79	28,824
522,99	37,134
523,19	29,157
523,39	30,384
523,59	31,229
523,78	32,118
523,98	29,524
524,18	32,474
524,38	28,309
524,58	32,866
524,77	34,615
524,97	32,765
525,17	30,339
525,37	32,111
525,57	34,246
525,76	33,147
525,96	35,425
526,16	29,862
526,36	31,764
526,56	31,197
526,75	33,453
526,95	33,955
527,15	31,456
527,35	30,462
527,55	28,817
527,74	30,927
527,94	29,764
528,14	28,548
528,34	31,381
528,53	30,487
528,73	35,595
528,93	33,743
529,13	29,470
529,32	31,461
529,52	31,272
529,72	30,363
529,92	30,430
530,12	29,043
530,31	30,439
530,51	33,891
530,71	29,631
530,91	36,176
531,10	26,930
531,30	31,923
531,50	28,807
531,70	33,600
531,89	34,040
532,09	28,791
532,29	32,601
532,49	29,052
532,68	31,398
532,88	29,227
533,08	28,668
533,28	29,796
533,47	32,593
533,67	31,689
533,87	30,733
534,06	38,223
534,26	29,905
534,46	31,257
534,66	32,631
534,85	31,607
535,05	29,671
535,25	30,983
535,45	28,756
535,64	35,209
535,84	33,621
536,04	27,889
536,23	31,663
536,43	34,759
536,63	30,476
536,83	32,448
537,02	32,130
537,22	29,039
537,42	32,349
537,61	32,235
537,81	31,609
538,01	31,456
538,20	31,429
538,40	28,356
538,60	30,711
538,80	30,098
538,99	31,587
539,19	29,894
539,39	27,852
539,58	32,232
539,78	28,801
539,98	28,399
540,17	27,940
540,37	32,114
540,57	27,177
540,76	29,030
540,96	24,754
541,16	30,276
541,36	27,267
541,55	25,419
541,75	26,465
541,95	27,549
542,14	25,351
542,34	22,509
542,54	21,572
542,73	26,600
542,93	26,740
543,13	25,889
543,32	24,771
543,52	28,442
543,72	22,710
543,91	26,457
544,11	25,206
544,31	21,030
544,50	25,363
544,70	26,069
544,89	26,065
545,09	27,963
545,29	27,431
545,48	28,179
545,68	22,991
545,88	26,482
546,07	23,617
546,27	25,792
546,47	28,468
546,66	28,380
546,86	26,624
547,06	29,323
547,25	27,260
547,45	27,982
547,64	28,326
547,84	30,869
548,04	30,577
548,23	32,089
548,43	31,633
548,63	30,326
548,82	32,275
549,02	29,817
549,21	28,729
549,41	30,464
549,61	30,709
549,80	28,130
550,00	29,664
550,20	27,553
550,39	29,888
550,59	31,342
550,78	31,929
550,98	28,720
551,18	30,428
551,37	30,830
551,57	29,848
551,76	30,431
551,96	29,690
552,16	29,441
552,35	30,971
552,55	29,249
552,74	28,987
552,94	32,741
553,14	29,624
553,33	32,782
553,53	31,079
553,72	29,996
553,92	33,815
554,12	29,037
554,31	31,889
554,51	29,256
554,70	27,600
554,90	30,818
555,09	33,934
555,29	29,054
555,49	30,809
555,68	34,060
555,88	29,431
556,07	29,530
556,27	35,042
556,46	29,464
556,66	29,353
556,86	37,457
557,05	32,125
557,25	30,773
557,44	30,591
557,64	28,843
557,83	32,917
558,03	32,920
558,22	28,831
558,42	30,858
558,62	31,862
558,81	34,685
559,01	32,419
559,20	32,261
559,40	30,606
559,59	30,217
559,79	29,972
559,98	29,935
560,18	31,478
560,37	31,547
560,57	30,448
560,76	28,989
560,96	26,004
561,16	29,211
561,35	31,380
561,55	32,097
561,74	30,981
561,94	31,958
562,13	30,006
562,33	31,644
562,52	31,896
562,72	28,722
562,91	29,423
563,11	31,261
563,30	32,666
563,50	30,523
563,69	28,733
563,89	28,758
564,08	30,275
564,28	31,399
564,47	32,442
564,67	31,716
564,86	30,264
565,06	29,637
565,25	29,845
565,45	29,968
565,64	33,729
565,84	29,316
566,03	28,434
566,23	31,824
566,42	30,541
566,62	29,743
566,81	30,280
567,01	31,098
567,20	30,255
567,40	29,999
567,59	29,975
567,79	33,681
567,98	33,174
568,18	30,802
568,37	31,954
568,57	30,716
568,76	32,028
568,96	32,060
569,15	29,394
569,35	30,619
569,54	34,330
569,73	31,149
569,93	31,403
570,12	30,931
570,32	32,438
570,51	31,473
570,71	32,253
570,90	31,420
571,10	31,494
571,29	29,533
571,49	28,982
571,68	32,769
571,87	32,259
572,07	32,071
572,26	27,297
572,46	31,365
572,65	30,114
572,85	29,207
573,04	31,480
573,24	30,903
573,43	33,551
573,62	31,940
573,82	31,381
574,01	31,458
574,21	28,492
574,40	30,856
574,60	27,545
574,79	34,202
574,98	31,243
575,18	30,462
575,37	28,087
575,57	30,344
575,76	31,827
575,96	31,186
576,15	30,860
576,34	30,384
576,54	32,169
576,73	31,744
576,93	30,788
577,12	32,724
577,31	32,195
577,51	31,489
577,70	30,532
577,90	31,357
578,09	30,522
578,28	30,163
578,48	31,251
578,67	31,111
578,87	32,362
579,06	30,533
579,25	31,913
579,45	32,208
579,64	29,971
579,84	30,236
580,03	31,461
580,22	32,131
580,42	30,832
580,61	30,760
580,81	30,327
581,00	30,653
581,19	33,583
581,39	28,966
581,58	30,079
581,77	28,657
581,97	32,434
582,16	30,824
582,35	30,009
582,55	29,992
582,74	31,738
582,94	31,564
583,13	30,460
583,32	30,442
583,52	32,218
583,71	30,471
583,90	30,425
584,10	31,587
584,29	32,382
584,48	28,831
584,68	28,762
584,87	31,611
585,06	30,239
585,26	29,103
585,45	30,352
585,65	31,267
585,84	30,375
586,03	30,079
586,23	29,739
586,42	29,929
586,61	34,418
586,81	31,206
587,00	29,022
587,19	31,298
587,39	31,061
587,58	30,495
587,77	28,524
587,97	28,348
588,16	30,559
588,35	29,509
588,54	30,355
588,74	31,263
588,93	32,795
589,12	30,736
589,32	30,130
589,51	30,064
589,70	28,581
589,90	27,597
590,09	27,310
590,28	33,130
590,48	27,726
590,67	31,263
590,86	30,323
591,06	29,703
591,25	30,774
591,44	30,716
591,63	29,515
591,83	30,124
592,02	30,308
592,21	30,228
592,41	30,630
592,60	31,786
592,79	30,930
592,98	31,529
593,18	28,243
593,37	29,773
593,56	30,550
593,76	31,575
593,95	30,330
594,14	29,121
594,33	31,760
594,53	30,587
594,72	28,984
594,91	30,681
595,10	29,106
595,30	28,985
595,49	30,222
595,68	31,677
595,88	32,303
596,07	31,214
596,26	30,487
596,45	29,740
596,65	27,739
596,84	30,417
597,03	32,171
597,22	30,139
597,42	32,188
597,61	28,310
597,80	31,401
597,99	29,156
598,19	31,620
598,38	30,813
598,57	29,316
598,76	31,213
598,95	31,334
599,15	31,375
599,34	29,811
599,53	28,630
599,72	29,522
599,92	33,251
600,11	31,267
600,30	30,509
600,49	33,117
600,69	29,855
600,88	31,219
601,07	29,539
601,26	27,862
601,45	28,910
601,65	28,338
601,84	31,621
602,03	29,438
602,22	31,786
602,42	32,534
602,61	29,092
602,80	30,758
602,99	29,328
603,18	29,773
603,38	32,201
603,57	28,588
603,76	28,579
603,95	30,082
604,14	32,350
604,34	27,864
604,53	28,141
604,72	31,751
604,91	30,433
605,10	30,188
605,29	32,581
605,49	28,505
605,68	29,899
605,87	32,836
606,06	30,216
606,25	29,863
606,45	30,976
606,64	30,031
606,83	32,625
607,02	29,451
607,21	30,101
607,40	29,778
607,60	28,964
607,79	28,932
607,98	28,532
608,17	30,084
608,36	28,343
608,55	28,417
608,75	29,811
608,94	29,860
609,13	26,278
609,32	26,958
609,51	27,680
609,70	29,172
609,89	26,057
610,09	25,959
610,28	26,727
610,47	26,504
610,66	26,088
610,85	22,959
611,04	27,910
611,23	25,542
611,43	25,324
611,62	26,456
611,81	24,800
612,00	26,266
612,19	25,177
612,38	26,503
612,57	27,526
612,77	27,811
612,96	26,357
613,15	27,596
613,34	27,969
613,53	27,561
613,72	28,659
613,91	26,787
614,10	28,172
614,29	29,764
614,49	27,677
614,68	27,282
614,87	27,662
615,06	31,282
615,25	28,328
615,44	29,079
615,63	28,973
615,82	27,645
616,01	29,930
616,21	26,035
616,40	29,209
616,59	30,681
616,78	28,682
616,97	27,513
617,16	28,190
617,35	30,402
617,54	27,636
617,73	29,797
617,92	29,518
618,11	29,691
618,31	29,314
618,50	28,815
618,69	27,288
618,88	29,023
619,07	24,320
619,26	27,672
619,45	27,425
619,64	25,967
619,83	26,938
620,02	28,798
620,21	28,974
620,40	28,488
620,59	29,452
620,78	28,866
620,97	27,743
621,17	30,666
621,36	28,647
621,55	26,745
621,74	29,320
621,93	28,824
622,12	28,176
622,31	28,075
622,50	28,314
622,69	30,813
622,88	29,621
623,07	30,409
623,26	28,229
623,45	29,997
623,64	28,586
623,83	28,463
624,02	29,025
624,21	27,793
624,40	28,826
624,59	25,365
624,78	27,565
624,97	31,282
625,16	26,609
625,35	26,556
625,54	26,089
625,73	26,261
625,92	30,331
626,12	29,067
626,31	30,282
626,50	29,729
626,69	28,437
626,88	29,700
627,07	28,464
627,26	27,978
627,45	30,139
627,64	28,293
627,83	28,221
628,02	26,776
628,21	28,164
628,40	28,981
628,59	30,251
628,78	25,896
628,97	28,032
629,16	27,375
629,35	28,024
629,54	29,050
629,73	30,064
629,92	28,092
630,10	29,134
630,29	28,258
630,48	26,733
630,67	27,586
630,86	29,711
631,05	27,526
631,24	28,263
631,43	25,318
631,62	29,170
631,81	26,092
632,00	27,709
632,19	24,851
632,38	28,620
632,57	29,330
632,76	24,385
632,95	28,572
633,14	30,028
633,33	30,498
633,52	28,006
633,71	28,881
633,90	26,652
634,09	28,887
634,28	27,429
634,47	27,888
634,66	27,788
634,85	27,981
635,04	30,923
635,22	27,818
635,41	28,016
635,60	30,551
635,79	30,567
635,98	28,142
636,17	28,154
636,36	25,770
636,55	25,764
636,74	26,479
636,93	27,187
637,12	27,024
637,31	26,415
637,50	26,969
637,69	29,086
637,87	29,859
638,06	26,092
638,25	26,753
638,44	27,204
638,63	26,193
638,82	27,405
639,01	27,368
639,20	27,827
639,39	29,458
639,58	27,991
639,77	27,759
639,95	27,442
640,14	29,151
640,33	27,446
640,52	26,644
640,71	30,886
640,90	27,222
641,09	28,783
641,28	28,506
641,47	28,430
641,66	29,172
641,84	28,834
642,03	24,627
642,22	27,525
642,41	30,943
642,60	28,021
642,79	28,453
642,98	28,303
643,17	28,667
643,35	26,304
643,54	27,196
643,73	27,203
643,92	27,125
644,11	27,640
644,30	28,291
644,49	28,754
644,67	28,503
644,86	27,582
645,05	27,146
645,24	26,308
645,43	26,700
645,62	28,990
645,81	26,562
645,99	27,669
646,18	30,858
646,37	27,633
646,56	26,899
646,75	27,188
646,94	29,793
647,13	26,019
647,31	27,934
647,50	26,536
647,69	29,774
647,88	28,508
648,07	29,965
648,26	30,739
648,44	27,881
648,63	29,437
648,82	27,592
649,01	28,930
649,20	25,893
649,38	27,832
649,57	27,659
649,76	27,123
649,95	28,224
650,14	27,201
650,33	27,590
650,51	28,486
650,70	27,265
650,89	27,916
651,08	27,960
651,27	28,267
651,45	26,528
651,64	27,135
651,83	27,675
652,02	26,718
652,21	27,157
652,39	28,899
652,58	29,111
652,77	30,727
652,96	28,121
653,15	29,282
653,33	28,452
653,52	29,045
653,71	30,483
653,90	29,474
654,09	27,789
654,27	28,202
654,46	29,931
654,65	29,100
654,84	29,541
655,02	30,628
655,21	28,797
655,40	30,512
655,59	29,283
655,77	29,006
655,96	29,529
656,15	30,612
656,34	29,332
656,53	28,875
656,71	29,604
656,90	30,892
657,09	28,744
657,28	29,831
657,46	27,457
657,65	27,172
657,84	27,875
658,03	27,620
658,21	29,878
658,40	27,452
658,59	26,202
658,78	28,409
658,96	27,420
659,15	27,903
659,34	27,274
659,52	27,824
659,71	27,452
659,90	26,524
660,09	26,406
660,27	28,754
660,46	29,546
660,65	28,752
660,84	27,092
661,02	28,419
661,21	29,854
661,40	28,585
661,58	27,403
661,77	29,000
661,96	26,024
662,15	26,947
662,33	27,916
662,52	27,619
662,71	26,745
662,89	25,755
663,08	27,643
663,27	28,827
663,45	27,670
663,64	28,249
663,83	27,771
664,02	25,032
664,20	28,412
664,39	27,649
664,58	27,606
664,76	27,324
664,95	28,261
665,14	29,305
665,32	25,307
665,51	29,258
665,70	29,259
665,88	28,779
666,07	28,143
666,26	29,271
666,44	28,968
666,63	26,105
666,82	24,963
667,00	26,329
667,19	25,857
667,38	27,251
667,56	27,699
667,75	28,459
667,94	27,945
668,12	26,279
668,31	29,148
668,50	28,315
668,68	28,635
668,87	26,400
669,06	27,898
669,24	29,152
669,43	26,784
669,62	28,192
669,80	26,132
669,99	26,965
670,18	27,432
670,36	26,022
670,55	30,136
670,74	26,259
670,92	24,842
671,11	29,305
671,29	25,874
671,48	26,915
671,67	27,654
671,85	26,579
672,04	26,909
672,23	26,720
672,41	27,592
672,60	28,334
672,78	27,141
672,97	26,573
673,16	27,776
673,34	28,390
673,53	26,025
673,71	28,224
673,90	27,972
674,09	27,521
674,27	28,045
674,46	27,310
674,64	27,386
674,83	27,443
675,02	26,583
675,20	26,624
675,39	26,949
675,57	27,595
675,76	26,709
675,95	30,520
676,13	27,472
676,32	27,452
676,50	27,422
676,69	25,301
676,88	27,746
677,06	26,281
677,25	27,760
677,43	29,289
677,62	29,202
677,80	27,180
677,99	27,732
678,18	28,391
678,36	29,324
678,55	25,177
678,73	25,519
678,92	26,695
679,10	26,587
679,29	25,935
679,48	24,791
679,66	28,431
679,85	27,267
680,03	27,288
680,22	26,509
680,40	26,858
680,59	27,139
680,77	26,244
680,96	26,948
681,15	27,363
681,33	30,057
681,52	27,700
681,70	27,286
681,89	30,101
682,07	26,260
682,26	27,037
682,44	28,430
682,63	27,239
682,81	28,608
683,00	26,544
683,18	24,896
683,37	27,312
683,55	28,049
683,74	28,437
683,92	32,326
684,11	28,459
684,29	26,862
684,48	26,589
684,67	26,363
684,85	27,308
685,04	27,738
685,22	26,935
685,41	26,993
685,59	27,444
685,78	26,272
685,96	26,863
686,15	26,195
686,33	26,712
686,52	25,718
686,70	26,270
686,89	26,543
687,07	27,782
687,26	28,612
687,44	26,150
687,62	27,213
687,81	28,195
687,99	27,651
688,18	27,224
688,36	28,312
688,55	29,751
688,73	26,188
688,92	26,107
689,10	27,466
689,29	27,610
689,47	29,871
689,66	25,425
689,84	25,712
690,03	31,311
690,21	25,694
690,40	26,436
690,58	25,910
690,76	24,987
690,95	27,577
691,13	25,692
691,32	26,449
691,50	26,737
691,69	28,733
691,87	26,686
692,06	27,665
692,24	26,335
692,43	26,668
692,61	27,754
692,79	26,376
692,98	25,365
693,16	28,097
693,35	25,303
693,53	29,052
693,72	28,306
693,90	28,467
694,08	25,191
694,27	26,885
694,45	26,876
694,64	29,348
694,82	25,307
695,01	27,111
695,19	25,144
695,37	27,234
695,56	26,781
695,74	27,028
695,93	27,781
696,11	26,260
696,29	26,549
696,48	28,429
696,66	28,413
696,85	24,255
697,03	26,344
697,21	27,846
697,40	28,685
697,58	27,909
697,77	27,656
697,95	27,806
698,13	26,572
698,32	26,305
698,50	25,706
698,69	24,972
698,87	26,620
699,05	29,027
699,24	26,316
699,42	26,557
699,60	25,112
699,79	26,434
699,97	24,927
700,16	24,406
700,34	29,654
700,52	25,556
700,71	26,623
700,89	25,171
701,07	23,964
701,26	26,324
701,44	26,415
701,63	25,612
701,81	26,530
701,99	26,549
702,18	26,081
702,36	26,614
702,54	27,974
702,73	26,711
702,91	25,519
703,09	25,537
703,28	24,230
703,46	27,349
703,64	25,651
703,83	27,872
704,01	26,864
704,19	27,065
704,38	24,173
704,56	26,788
704,74	27,975
704,93	25,509
705,11	25,799
705,29	26,215
705,48	29,790
705,66	25,898
705,84	26,052
706,03	23,680
706,21	24,867
706,39	25,523
706,58	24,560
706,76	26,752
706,94	27,122
707,12	26,298
707,31	25,376
707,49	26,946
707,67	25,392
707,86	29,701
708,04	26,747
708,22	25,594
708,41	27,391
708,59	25,256
708,77	26,859
708,95	25,308
709,14	29,299
709,32	26,469
709,50	23,832
709,69	26,996
709,87	26,560
710,05	25,029
710,23	25,400
710,42	24,780
710,60	26,573
710,78	29,281
710,97	26,946
711,15	26,250
711,33	26,726
711,51	25,178
711,70	25,087
711,88	26,519
712,06	28,249
712,24	27,592
712,43	26,905
712,61	25,844
712,79	25,562
712,97	24,724
713,16	26,491
713,34	24,034
713,52	28,641
713,70	26,136
713,89	24,872
714,07	24,399
714,25	26,676
714,43	27,496
714,62	25,103
714,80	25,038
714,98	24,215
715,16	25,259
715,35	25,058
715,53	26,114
715,71	28,517
715,89	29,603
716,07	28,144
716,26	26,091
716,44	27,279
716,62	26,597
716,80	26,404
716,99	27,102
717,17	29,423
717,35	26,521
717,53	24,429
717,71	25,484
717,90	28,044
718,08	27,506
718,26	26,263
718,44	28,463
718,62	28,823
718,81	27,120
718,99	24,819
719,17	25,021
719,35	27,377
719,53	25,885
719,72	23,631
719,90	25,070
720,08	26,367
720,26	28,744
720,44	25,918
720,62	24,267
720,81	28,609
720,99	28,137
721,17	25,894
721,35	27,691
721,53	23,658
721,72	28,369
721,90	25,608
722,08	25,467
722,26	27,017
722,44	26,375
722,62	24,124
722,81	24,998
722,99	27,232
723,17	24,792
723,35	26,318
723,53	28,183
723,71	26,801
723,89	30,801
724,08	27,168
724,26	25,427
724,44	26,906
724,62	28,311
724,80	23,920
724,98	25,976
725,16	29,033
725,35	27,245
725,53	27,291
725,71	26,065
725,89	26,332
726,07	31,026
726,25	29,451
726,43	24,077
726,61	27,073
726,80	27,245
726,98	25,417
727,16	24,129
727,34	28,611
727,52	24,911
727,70	26,029
727,88	26,335
728,06	23,898
728,25	25,967
728,43	24,443
728,61	25,214
728,79	24,193
728,97	27,874
729,15	26,149
729,33	28,538
729,51	27,541
729,69	26,554
729,87	26,163
730,06	28,067
730,24	27,755
730,42	28,618
730,60	26,064
730,78	26,791
730,96	27,301
731,14	28,399
731,32	27,895
731,50	26,042
731,68	25,753
731,86	27,915
732,04	27,061
732,22	25,785
732,41	33,824
732,59	26,912
732,77	27,637
732,95	27,147
733,13	28,062
733,31	27,786
733,49	25,221
733,67	26,547
733,85	28,693
734,03	26,196
734,21	25,770
734,39	26,991
734,57	27,975
734,75	28,612
734,93	24,299
735,11	27,919
735,29	24,257
735,47	27,137
735,65	25,552
735,84	25,787
736,02	25,145
736,20	30,021
736,38	24,777
736,56	26,832
736,74	26,646
736,92	27,349
737,10	25,877
737,28	28,775
737,46	27,336
737,64	26,745
737,82	26,818
738,00	28,797
738,18	27,413
738,36	28,691
738,54	26,346
738,72	27,591
738,90	26,838
739,08	28,467
739,26	25,677
739,44	26,724
739,62	31,273
739,80	27,932
739,98	27,005
740,16	26,487
740,34	27,582
740,52	30,423
740,70	26,774
740,88	26,437
741,06	28,141
741,24	27,176
741,42	26,622
741,60	24,765
741,78	28,886
741,96	27,109
742,14	27,746
742,32	27,398
742,50	24,545
742,68	27,721
742,86	28,386
743,04	25,541
743,21	28,758
743,39	26,212
743,57	26,603
743,75	27,883
743,93	24,259
744,11	22,649
744,29	27,634
744,47	25,289
744,65	26,467
744,83	26,906
745,01	25,797
745,19	25,061
745,37	29,889
745,55	27,119
745,73	27,712
745,91	25,562
746,09	27,554
746,27	25,858
746,45	25,816
746,62	26,940
746,80	25,376
746,98	25,760
747,16	22,887
747,34	24,339
747,52	26,573
747,70	28,975
747,88	28,192
748,06	28,217
748,24	27,065
748,42	29,161
748,60	26,295
748,78	22,975
748,95	30,076
749,13	30,884
749,31	26,301
749,49	26,515
749,67	26,516
749,85	28,214
750,03	27,617
750,21	26,398
750,39	28,710
750,57	24,783
750,74	27,435
750,92	26,345
751,10	26,931
751,28	24,365
751,46	28,455
751,64	27,044
751,82	28,823
752,00	28,615
752,17	28,220
752,35	29,949
752,53	27,601
752,71	26,849
752,89	26,485
753,07	25,686
753,25	26,954
753,43	23,792
753,60	28,520
753,78	27,295
753,96	27,562
754,14	28,847
754,32	28,719
754,50	28,109
754,68	26,972
754,85	24,940
755,03	27,466
755,21	27,730
755,39	31,367
755,57	27,863
755,75	28,749
755,92	27,256
756,10	27,284
756,28	25,410
756,46	26,447
756,64	25,676
756,82	27,794
756,99	25,431
757,17	25,201
757,35	23,586
757,53	30,268
757,71	29,053
757,89	25,248
758,06	28,209
758,24	28,871
758,42	28,051
758,60	25,141
758,78	27,524
758,95	27,355
759,13	28,322
759,31	27,645
759,49	25,843
759,67	26,617
759,84	26,166
760,02	27,141
760,20	25,313
760,38	27,427
760,56	23,901
760,73	25,727
760,91	25,393
761,09	29,301
761,27	25,706
761,45	26,836
761,62	23,537
761,80	24,588
761,98	27,093
762,16	30,153
762,33	25,697
762,51	27,359
762,69	25,751
762,87	27,289
763,05	28,589
763,22	26,312
763,40	25,475
763,58	27,568
763,76	24,885
763,93	28,622
764,11	29,105
764,29	27,484
764,47	27,783
764,64	27,961
764,82	29,380
765,00	26,124
765,18	25,100
765,35	26,714
765,53	25,304
765,71	28,740
765,89	26,261
766,06	23,914
766,24	26,769
766,42	25,641
766,60	24,484
766,77	25,250
766,95	26,233
767,13	26,739
767,30	26,679
767,48	24,520
767,66	24,666
767,84	24,538
768,01	26,954
768,19	27,039
768,37	24,805
768,54	25,072
768,72	26,731
768,90	25,756
769,08	28,282
769,25	24,701
769,43	26,069
769,61	24,795
769,78	27,529
769,96	25,891
770,14	27,108
770,31	27,932
770,49	30,748
770,67	26,771
770,85	26,909
771,02	27,550
771,20	25,471
771,38	25,941
771,55	25,788
771,73	22,249
771,91	27,850
772,08	27,204
772,26	27,765
772,44	27,835
772,61	28,045
772,79	24,935
772,97	25,934
773,14	24,938
773,32	28,429
773,50	26,521
773,67	27,074
773,85	28,534
774,03	30,983
774,20	27,798
774,38	24,977
774,56	26,396
774,73	24,788
774,91	24,714
775,09	25,973
775,26	26,928
775,44	28,375
775,61	27,790
775,79	24,998
775,97	29,834
776,14	25,930
776,32	28,396
776,50	26,283
776,67	27,914
776,85	27,659
777,03	23,970
777,20	28,667
777,38	28,045
777,55	28,044
777,73	26,174
777,91	23,381
778,08	26,222
778,26	24,979
778,43	26,522
778,61	25,547
778,79	22,772
778,96	28,496
779,14	25,002
779,32	24,982
779,49	25,668
779,67	30,601
779,84	29,192
780,02	27,527
780,20	26,516
780,37	29,047
780,55	22,154
780,72	25,837
780,90	26,936
781,07	27,928
781,25	28,727
781,43	26,592
781,60	25,475
781,78	28,958
781,95	27,406
782,13	25,376
782,30	28,115
782,48	28,819
782,66	25,980
782,83	26,648
783,01	33,942
783,18	28,449
783,36	28,497
783,53	27,415
783,71	24,692
783,89	26,264
784,06	27,936
784,24	25,983
784,41	27,520
784,59	24,312
784,76	31,217
784,94	26,917
785,11	27,712
785,29	26,483
785,46	27,378
785,64	24,998
785,82	28,996
785,99	29,728
786,17	29,815
786,34	24,217
786,52	30,221
786,69	29,212
786,87	26,948
787,04	27,131
787,22	25,068
787,39	29,166
787,57	29,132
787,74	24,588
787,92	29,681
788,09	29,057
788,27	28,094
788,44	26,029
788,62	29,260
788,79	24,368
788,97	26,684
789,14	28,708
789,32	26,347
789,49	27,439
789,67	29,594
789,84	23,275
790,02	31,237
790,19	23,191
790,37	28,047
790,54	26,794
790,72	31,909
790,89	28,867
791,07	32,075
791,24	23,487
791,42	30,194
791,59	31,612
791,77	25,684
791,94	28,049
792,12	28,237
792,29	29,837
792,47	29,141
792,64	29,235
792,81	29,717
792,99	26,102
793,16	25,513
793,34	25,916
793,51	26,657
793,69	28,867
793,86	26,667
794,04	30,177
794,21	32,290
794,39	27,196
794,56	24,864
794,73	29,766
794,91	31,873
795,08	26,747
795,26	27,281
795,43	24,181
795,61	31,588
795,78	25,181
795,95	29,707
796,13	28,836
796,30	29,631
796,48	22,731
796,65	24,479
796,83	28,275
797,00	27,955
797,17	26,832
797,35	26,745
797,52	28,718
797,70	30,692
797,87	28,450
798,04	30,960
798,22	25,708
798,39	28,293
798,57	26,999
798,74	28,677
798,91	22,935
799,09	27,384
799,26	28,221
799,44	28,803
799,61	26,281
799,78	26,301
799,96	33,046
800,13	23,614
800,31	30,001
800,48	31,527
800,65	34,982
800,83	28,844
801,00	26,699
801,17	27,367
801,35	29,077
801,52	30,739
801,70	30,057
801,87	27,199
802,04	31,060
802,22	23,272
802,39	28,908
802,56	31,374
802,74	30,452
802,91	26,214
803,08	27,285
803,26	30,126
803,43	33,683
803,61	25,672
803,78	26,691
803,95	30,523
804,13	29,386
804,30	24,541
804,47	30,499
804,65	30,230
804,82	29,577
804,99	31,085
805,17	27,352
805,34	36,052
805,51	28,378
805,69	26,658
805,86	32,661
806,03	34,192
806,21	31,774
806,38	33,213
806,55	25,257
806,72	32,382
806,90	34,127
807,07	28,723
807,24	27,348
807,42	25,625
807,59	29,300
807,76	25,608
807,94	29,591
808,11	32,113
808,28	34,649
808,45	29,021
808,63	27,762
808,80	33,625
808,97	27,687
809,15	28,325
809,32	31,367
809,49	29,142
809,67	30,632
809,84	32,974
810,01	31,018
810,18	40,392
810,36	35,558
810,53	28,396
810,70	31,645
810,87	30,758
811,05	30,302
811,22	29,448
811,39	26,884
811,57	32,451
811,74	26,141
811,91	33,630
812,08	27,419
812,26	26,765
812,43	25,429
812,60	35,725
812,77	29,056
812,95	33,924
813,12	27,410
813,29	29,570
813,46	29,089
813,64	34,884
813,81	30,340
813,98	29,947
814,15	30,850
814,32	36,526
814,50	32,235
814,67	30,066
814,84	34,844
815,01	31,408
815,19	29,489
815,36	31,125
815,53	29,086
815,70	29,600
815,87	35,452
816,05	28,213
816,22	33,284
816,39	33,392
816,56	35,434
816,74	33,987
816,91	33,162
817,08	36,117
817,25	37,781
817,42	32,273
817,60	34,263
817,77	35,369
817,94	28,861
818,11	28,404
818,28	24,741
818,45	34,181
818,63	31,610
818,80	29,180
818,97	28,399
819,14	36,792
819,31	38,149
819,49	31,408
819,66	30,595
819,83	34,266
820,00	34,371
820,17	28,371
820,34	31,224
820,52	34,651
820,69	35,434
820,86	33,954
821,03	30,483
821,20	35,279
821,37	37,216
821,55	34,805
821,72	25,658
821,89	34,866
822,06	34,443
822,23	30,994
822,40	27,602
822,57	34,372
822,75	36,953
822,92	22,959
823,09	33,839
823,26	35,437
823,43	35,342
823,60	28,148
823,77	30,945
823,94	40,669
824,12	37,785
824,29	27,804
824,46	39,348
824,63	45,104
824,80	37,793
824,97	31,208
825,14	29,905
825,31	32,837
825,49	32,973
825,66	18,440
825,83	27,702
826,00	33,137
826,17	39,388
826,34	32,376
826,51	27,029
826,68	32,449
826,85	31,212
827,02	26,741
827,20	33,630
827,37	27,559
827,54	34,960
827,71	36,281
827,88	32,381
828,05	36,088
828,22	36,169
828,39	40,613
828,56	33,257
828,73	37,293
828,90	35,185
829,07	31,429
829,25	30,370
829,42	27,417
829,59	32,362
829,76	30,667
829,93	38,320
830,10	31,343
830,27	33,398
830,44	31,567
830,61	22,881
830,78	42,634
830,95	40,080
831,12	33,801
831,29	28,417
831,46	24,783
831,63	30,018
831,80	36,423
831,97	32,269
832,14	39,347
832,31	41,058
832,48	29,840
832,65	36,695
832,83	29,915
833,00	37,767
833,17	28,931
833,34	34,619
833,51	35,814
833,68	44,498
833,85	32,244
834,02	29,704
834,19	34,786
834,36	36,631
834,53	25,016
834,70	28,465
834,87	49,657
835,04	34,031
835,21	34,114
835,38	35,234
835,55	25,477
835,72	49,646
835,89	29,731
836,06	27,230
836,23	46,277
836,40	27,290
836,57	33,067
836,74	34,800
836,91	33,218
837,08	47,715
837,25	35,523
837,42	32,889
837,59	29,954
837,76	34,794
837,93	31,728
838,09	33,924
838,26	33,890
838,43	43,149
838,60	43,230
838,77	37,214
838,94	36,706
839,11	49,620
839,28	38,197
839,45	33,862
839,62	31,468
839,79	27,920
839,96	37,980
840,13	36,616
840,30	32,268
840,47	36,905
840,64	43,066
840,81	33,026
840,98	28,757
841,15	44,764
841,32	32,225
841,48	38,353
841,65	36,986
841,82	34,313
841,99	33,771
842,16	39,962
842,33	29,398
842,50	41,420
842,67	25,532
842,84	29,645
843,01	41,265
843,18	32,265
843,35	44,782
843,52	29,764
843,68	39,857
843,85	32,720
844,02	27,385
844,19	34,705
844,36	42,177
844,53	27,370
844,70	16,628
844,87	47,158
845,04	41,722
845,21	24,185
845,37	44,916
845,54	34,686
845,71	35,072
845,88	57,144
846,05	29,107
846,22	20,071
846,39	38,745
846,56	35,272
846,72	19,807
846,89	33,460
847,06	43,082
847,23	42,410
847,40	23,674
847,57	33,820
847,74	27,396
847,90	53,569
848,07	34,676
848,24	37,810
848,41	47,098
848,58	55,968
848,75	35,549
848,92	27,467
849,08	35,704
849,25	32,688
849,42	23,811
849,59	35,240
849,76	29,791
849,93	43,660
850,09	43,853
850,26	24,833
850,43	46,630
850,60	24,376
850,77	29,489
850,94	29,294
851,10	31,593
851,27	35,603
851,44	34,592
851,61	30,971
851,78	57,112
851,95	53,087
852,11	35,607
852,28	24,235
852,45	50,096
852,62	53,342
852,79	41,667
852,95	37,699
853,12	44,444
853,29	30,749
853,46	29,377
853,63	39,382
853,79	31,975
853,96	37,303
854,13	46,702
854,30	38,389
854,46	53,863
854,63	32,194
854,80	44,971
854,97	38,658
855,14	71,429
855,30	42,721
855,47	49,113
855,64	46,982
855,81	37,176
855,97	57,859
856,14	38,298
856,31	21,855
856,48	45,757
856,65	59,482
856,81	45,738
856,98	18,866
857,15	25,504
857,32	58,020
857,48	40,376
857,65	57,349
857,82	53,125
857,99	41,042
858,15	49,295
858,32	41,301
858,49	27,290
858,65	55,217
858,82	37,135
858,99	50,592
859,16	54,904
859,32	40,454
859,49	49,501
859,66	54,466
859,83	47,758
859,99	37,543
860,16	31,512
860,33	41,180
860,49	46,933
860,66	50,623
860,83	43,818
861,00	32,242
861,16	57,348
861,33	56,256
861,50	28,337
861,66	48,440
861,83	55,094
862,00	31,448
862,16	34,375
862,33	46,051
862,50	73,106
862,67	39,357
862,83	44,760
863,00	53,767
863,17	56,415
863,33	45,729
863,50	25,226
863,67	49,277
863,83	47,128
864,00	64,580
864,17	36,672
864,33	31,039
864,50	38,188
864,67	53,062
864,83	26,011
865,00	48,327
865,17	35,241
865,33	60,325
865,50	40,939
865,67	43,539
865,83	41,238
866,00	65,349
866,17	43,547
866,33	57,445
866,50	35,449
866,66	38,354
866,83	34,834
867,00	51,761
867,16	71,073
867,33	92,354
867,50	38,628
867,66	44,320
867,83	48,847
868,00	36,639
868,16	45,323
868,33	43,897
868,49	40,859
868,66	67,099
868,83	55,353
868,99	62,855
869,16	89,658
869,32	61,749
869,49	50,041
869,66	54,472
869,82	66,115
869,99	75,006
870,15	44,591
870,32	59,698
870,49	125,682
870,65	85,289
870,82	50,949
870,98	59,984
871,15	78,916
871,32	69,555
871,48	50,056
871,65	28,258
871,81	43,609
871,98	31,696
872,15	39,857
872,31	40,060
872,48	71,001
872,64	55,815
872,81	73,954
872,97	33,736
873,14	112,443
873,31	60,397
873,47	44,255
873,64	80,496
873,80	99,054
873,97	84,426
874,13	61,736
874,30	46,244
874,46	61,644
874,63	54,390
874,80	52,908
874,96	53,501
875,13	81,761
875,29	32,797
875,46	82,997
875,62	9,761
875,79	81,484
875,95	47,764
876,12	28,376
876,28	32,732
876,45	109,979
876,61	42,135
876,78	51,834
876,94	29,668
877,11	66,722
877,27	156,020
877,44	80,709
877,60	53,826
877,77	62,132
877,94	133,289
878,10	52,055
878,27	72,769
878,43	131,663
878,60	59,363
878,76	87,617
878,93	91,727
879,09	46,944
879,26	122,443
879,42	59,178
879,58	77,118
879,75	110,706
879,91	115,761
880,08	67,682
880,24	86,823
880,41	8,406
880,57	57,549
880,74	106,389
880,90	67,194
881,07	54,525
881,23	151,176
881,40	72,803
881,56	61,961
881,73	165,155
881,89	83,603
882,06	26,835
882,22	148,024
882,38	138,714
882,55	122,778
882,71	61,232
882,88	27,887
883,04	100,734
883,21	78,147
883,37	132,288
883,54	89,805
883,70	234,774
883,86	139,434
884,03	114,946
884,19	47,833
884,36	115,989
884,52	126,467
884,69	146,533
884,85	64,448
885,01	100,627
885,18	146,559
885,34	67,401
885,51	71,304
885,67	114,965
>>>>> Data<<<<< Espectral Procesado Extremo
