Fichero De Datos De SpectraSuite
++++++++++++++++++++++++++++++++++++
Fecha: Wed Apr 22 08:35:08 CEST 2009
Usuario: evoflor
Presente Oscuro Del Espectro: Sí
La Referencia de Presente Del Espectro De: Sí
Muestreados de los componentes de Número de espectros: 1
Espectrómetros: USB4F02353
Tiempo de integración (usec): 500000 (USB4F02353)
Promedio de Espectros Hechos un: 5 (USB4F02353)
El Alisar Del Furgón: 0 (USB4F02353)
Párrafo de de Corregir del la del del de Eléctrica del obscuridad: Sí (USB4F02353)
Estrobo/Lámpara Permitido: No (USB4F02353)
Correct for Detector Non-linearity: No (USB4F02353)
Párrafo de de Corregir del la del del de Externa del luz: No (USB4F02353)
Procesado del espectro de Número de pixeles en: 3648
>>>>> Comienza Data<<<<< Espectral Procesado Del EL
177,79	844,877
178,00	844,877
178,22	844,877
178,44	-6941,255
178,66	594,908
178,88	122,361
179,09	-547,558
179,31	177,771
179,53	-4343,284
179,75	204,273
179,96	-198,096
180,18	549,030
180,40	-402,110
180,62	-151,691
180,83	-93,725
181,05	-1129,580
181,27	-850,158
181,49	184,281
181,70	-356,897
181,92	292,815
182,14	165,562
182,36	-1163,005
182,58	221,677
182,79	-871,427
183,01	-10502,935
183,23	502,155
183,45	-75,267
183,66	-7,533
183,88	905,177
184,10	742,786
184,32	1142,503
184,53	-291,161
184,75	507,127
184,97	-112,276
185,18	968,035
185,40	269,497
185,62	-839,664
185,84	1205,607
186,05	3459,874
186,27	-6451,206
186,49	-785,737
186,71	269,074
186,92	720,468
187,14	1763,193
187,36	384,312
187,58	695,850
187,79	-995,446
188,01	-1324,231
188,23	150,429
188,45	165,345
188,66	30,851
188,88	272,326
189,10	-323,688
189,31	-65,775
189,53	95,884
189,75	1063,283
189,97	146,078
190,18	173,587
190,40	1517,721
190,62	206,031
190,83	417,463
191,05	-189,950
191,27	2504,394
191,49	594,537
191,70	509,025
191,92	561,086
192,14	438,220
192,35	-1662,341
192,57	-934,544
192,79	-1810,841
193,01	557,569
193,22	-194,217
193,44	-520,526
193,66	348,430
193,87	1201,285
194,09	128,232
194,31	253,208
194,53	-493,691
194,74	480,871
194,96	-256,584
195,18	785,911
195,39	-1364,018
195,61	-379,983
195,83	3065,351
196,04	475,274
196,26	142,394
196,48	2075,804
196,70	687,360
196,91	130,934
197,13	-80,742
197,35	227,429
197,56	-393,125
197,78	5699,767
198,00	561,312
198,21	342,946
198,43	875,013
198,65	248,496
198,86	166,604
199,08	879,684
199,30	215,727
199,51	884,484
199,73	-2126,546
199,95	220,702
200,16	704,147
200,38	194,523
200,60	3256,012
200,81	-579,210
201,03	8971,292
201,25	657,335
201,46	-267,992
201,68	413,238
201,90	603,145
202,11	413,637
202,33	187,948
202,55	185,834
202,76	802,372
202,98	700,184
203,20	316,199
203,41	-1006,058
203,63	542,351
203,85	131,415
204,06	-453,740
204,28	158,329
204,50	-260,577
204,71	481,849
204,93	207,820
205,15	194,381
205,36	-238,295
205,58	-880,492
205,80	-2692,933
206,01	-1661,448
206,23	217,126
206,45	381,826
206,66	333,292
206,88	-432,956
207,10	2621,589
207,31	-53900,662
207,53	110,673
207,75	-192,615
207,96	430,068
208,18	306,675
208,39	183,169
208,61	823,061
208,83	7075,350
209,04	399,008
209,26	193,083
209,48	36,876
209,69	-105,378
209,91	1001,675
210,13	-4,293
210,34	281,427
210,56	320,880
210,77	1705,242
210,99	362,322
211,21	-261,047
211,42	159,251
211,64	979,319
211,86	360,732
212,07	320,052
212,29	603,597
212,50	1147,725
212,72	224,406
212,94	343,585
213,15	35,183
213,37	973,327
213,58	129,025
213,80	293,987
214,02	3084,970
214,23	357,166
214,45	280,649
214,67	27,757
214,88	-164,421
215,10	1125,492
215,31	-1391,819
215,53	100,803
215,75	371,800
215,96	658,362
216,18	161,658
216,39	261,431
216,61	448,412
216,83	1150,976
217,04	464,803
217,26	50,568
217,47	708,803
217,69	298,847
217,91	105,837
218,12	1238,570
218,34	129,027
218,55	208,223
218,77	19,538
218,99	115,557
219,20	203,787
219,42	504,472
219,63	83,725
219,85	205,328
220,06	18,347
220,28	114,406
220,50	29,950
220,71	73,474
220,93	568,820
221,14	399,686
221,36	75,653
221,58	100,003
221,79	29,934
222,01	197,804
222,22	206,901
222,44	61,229
222,65	202,875
222,87	57,562
223,09	70,733
223,30	107,433
223,52	0,415
223,73	101,207
223,95	42,101
224,16	143,280
224,38	70,716
224,60	52,949
224,81	97,517
225,03	151,310
225,24	120,970
225,46	-20,758
225,67	14,998
225,89	31,182
226,10	98,099
226,32	90,345
226,54	-7,798
226,75	-4,164
226,97	159,665
227,18	93,890
227,40	106,683
227,61	37,036
227,83	49,101
228,04	125,736
228,26	74,445
228,47	34,722
228,69	74,487
228,91	69,121
229,12	152,016
229,34	36,254
229,55	51,372
229,77	24,872
229,98	38,512
230,20	46,475
230,41	-5,094
230,63	75,078
230,84	42,023
231,06	79,166
231,27	-1,183
231,49	47,949
231,71	22,808
231,92	13,799
232,14	-5,013
232,35	36,300
232,57	5,811
232,78	18,005
233,00	27,007
233,21	31,869
233,43	14,751
233,64	1,924
233,86	27,995
234,07	45,022
234,29	8,332
234,50	17,090
234,72	32,477
234,93	20,228
235,15	2,708
235,36	13,231
235,58	53,912
235,79	24,433
236,01	11,082
236,22	15,329
236,44	34,829
236,65	18,783
236,87	20,060
237,08	12,012
237,30	2,242
237,51	21,127
237,73	10,111
237,94	10,433
238,16	19,655
238,37	2,978
238,59	6,938
238,80	10,348
239,02	5,218
239,23	22,353
239,45	11,336
239,66	20,900
239,88	25,008
240,09	14,851
240,31	9,388
240,52	3,849
240,74	14,039
240,95	8,037
241,17	13,965
241,38	5,523
241,60	8,853
241,81	18,348
242,03	1,782
242,24	10,422
242,46	9,703
242,67	-7,069
242,89	14,121
243,10	7,499
243,32	10,878
243,53	15,313
243,75	7,791
243,96	12,978
244,18	7,226
244,39	15,938
244,60	-2,001
244,82	2,828
245,03	15,593
245,25	5,649
245,46	20,063
245,68	5,813
245,89	29,678
246,11	20,308
246,32	8,770
246,54	8,978
246,75	5,251
246,97	15,787
247,18	18,416
247,39	5,372
247,61	10,343
247,82	13,647
248,04	0,809
248,25	2,047
248,47	7,133
248,68	11,944
248,90	7,469
249,11	7,570
249,33	16,078
249,54	7,414
249,75	8,644
249,97	0,111
250,18	19,114
250,40	11,053
250,61	6,124
250,83	2,039
251,04	9,126
251,25	15,576
251,47	11,215
251,68	3,714
251,90	8,889
252,11	6,310
252,33	7,666
252,54	3,885
252,76	0,036
252,97	0,858
253,18	8,549
253,40	7,883
253,61	1,920
253,83	4,360
254,04	9,304
254,25	1,571
254,47	-1,008
254,68	6,345
254,90	4,208
255,11	1,527
255,33	6,103
255,54	2,925
255,75	2,564
255,97	6,589
256,18	4,200
256,40	4,907
256,61	7,226
256,82	3,412
257,04	9,780
257,25	2,470
257,47	5,900
257,68	10,151
257,89	2,976
258,11	2,941
258,32	10,906
258,54	5,019
258,75	16,397
258,96	7,636
259,18	7,642
259,39	2,172
259,61	8,847
259,82	0,641
260,03	4,204
260,25	6,278
260,46	6,786
260,68	3,020
260,89	3,054
261,10	6,199
261,32	5,453
261,53	-1,253
261,75	8,121
261,96	3,580
262,17	18,137
262,39	10,015
262,60	0,861
262,81	3,819
263,03	12,591
263,24	6,588
263,46	1,651
263,67	7,838
263,88	6,794
264,10	4,220
264,31	6,261
264,52	5,475
264,74	7,976
264,95	6,246
265,17	7,455
265,38	4,727
265,59	12,836
265,81	7,863
266,02	-1,557
266,23	-0,423
266,45	11,904
266,66	9,513
266,87	4,039
267,09	4,049
267,30	9,244
267,52	11,904
267,73	5,632
267,94	1,873
268,16	5,344
268,37	2,023
268,58	8,805
268,80	-1,244
269,01	6,941
269,22	7,539
269,44	5,209
269,65	7,093
269,86	1,917
270,08	6,789
270,29	2,697
270,50	3,231
270,72	6,929
270,93	3,508
271,14	4,395
271,36	0,986
271,57	6,894
271,78	1,549
272,00	2,747
272,21	8,012
272,42	5,287
272,64	9,140
272,85	1,608
273,06	2,784
273,28	6,244
273,49	1,025
273,70	8,069
273,92	6,172
274,13	3,056
274,34	-2,858
274,56	8,249
274,77	5,335
274,98	10,187
275,20	9,475
275,41	7,238
275,62	1,955
275,84	4,171
276,05	11,218
276,26	4,497
276,47	3,318
276,69	9,657
276,90	10,177
277,11	2,677
277,33	1,627
277,54	8,831
277,75	4,525
277,97	-0,774
278,18	2,973
278,39	10,113
278,61	2,358
278,82	7,666
279,03	8,255
279,24	2,579
279,46	3,899
279,67	10,443
279,88	3,940
280,10	9,304
280,31	2,761
280,52	0,996
280,73	1,861
280,95	7,657
281,16	7,718
281,37	4,287
281,59	5,172
281,80	8,359
282,01	3,430
282,22	2,821
282,44	6,312
282,65	12,318
282,86	4,814
283,08	3,178
283,29	3,723
283,50	1,003
283,71	5,740
283,93	5,173
284,14	2,316
284,35	5,443
284,56	5,199
284,78	0,130
284,99	5,566
285,20	8,813
285,42	3,461
285,63	3,034
285,84	1,828
286,05	4,825
286,27	2,427
286,48	6,647
286,69	4,865
286,90	4,334
287,12	1,905
287,33	3,452
287,54	2,077
287,75	9,114
287,97	3,366
288,18	2,270
288,39	3,721
288,60	4,383
288,82	2,749
289,03	3,101
289,24	5,185
289,45	9,019
289,67	4,067
289,88	3,494
290,09	8,573
290,30	4,441
290,52	2,741
290,73	0,212
290,94	3,432
291,15	2,920
291,37	3,855
291,58	3,386
291,79	5,014
292,00	2,169
292,21	4,667
292,43	6,058
292,64	0,939
292,85	5,620
293,06	7,232
293,28	4,348
293,49	2,756
293,70	7,753
293,91	0,924
294,12	2,170
294,34	3,968
294,55	5,936
294,76	5,131
294,97	6,432
295,19	3,454
295,40	5,040
295,61	4,713
295,82	5,516
296,03	3,858
296,25	4,994
296,46	3,627
296,67	2,359
296,88	5,009
297,09	2,732
297,31	0,934
297,52	5,775
297,73	1,518
297,94	2,581
298,15	6,552
298,37	4,533
298,58	2,875
298,79	3,524
299,00	-1,980
299,21	2,465
299,43	2,755
299,64	9,270
299,85	2,568
300,06	0,393
300,27	1,230
300,49	5,696
300,70	8,686
300,91	1,663
301,12	3,203
301,33	8,353
301,54	2,377
301,76	5,378
301,97	3,185
302,18	5,244
302,39	7,632
302,60	3,163
302,82	3,284
303,03	8,951
303,24	3,035
303,45	5,152
303,66	5,807
303,87	-0,540
304,09	5,363
304,30	0,324
304,51	3,346
304,72	1,800
304,93	4,515
305,14	3,165
305,36	3,621
305,57	1,353
305,78	7,791
305,99	3,463
306,20	4,628
306,41	0,907
306,62	0,468
306,84	3,589
307,05	5,473
307,26	1,935
307,47	8,370
307,68	3,142
307,89	3,252
308,11	5,952
308,32	4,004
308,53	2,274
308,74	2,338
308,95	2,085
309,16	6,979
309,37	3,407
309,59	1,993
309,80	4,505
310,01	2,548
310,22	4,301
310,43	5,173
310,64	5,596
310,85	4,762
311,06	2,448
311,28	4,129
311,49	4,742
311,70	7,896
311,91	3,258
312,12	1,886
312,33	2,512
312,54	4,212
312,75	7,188
312,97	2,301
313,18	6,351
313,39	0,621
313,60	3,792
313,81	3,829
314,02	3,844
314,23	5,170
314,44	1,644
314,65	0,993
314,87	2,359
315,08	3,398
315,29	1,973
315,50	5,010
315,71	9,013
315,92	7,752
316,13	1,400
316,34	4,567
316,55	6,569
316,77	-0,064
316,98	0,970
317,19	2,384
317,40	6,318
317,61	7,515
317,82	4,852
318,03	0,762
318,24	3,932
318,45	7,043
318,66	4,498
318,87	1,776
319,09	4,561
319,30	5,098
319,51	6,812
319,72	5,307
319,93	5,983
320,14	7,077
320,35	5,350
320,56	-1,041
320,77	4,315
320,98	9,202
321,19	9,105
321,40	4,766
321,62	4,596
321,83	-1,239
322,04	4,582
322,25	5,008
322,46	7,301
322,67	7,848
322,88	5,075
323,09	4,419
323,30	7,238
323,51	9,506
323,72	5,746
323,93	1,093
324,14	2,674
324,35	-0,087
324,56	2,659
324,77	2,411
324,99	3,157
325,20	2,542
325,41	4,820
325,62	2,772
325,83	-0,834
326,04	2,352
326,25	2,942
326,46	0,812
326,67	3,782
326,88	5,179
327,09	2,406
327,30	3,422
327,51	3,320
327,72	2,416
327,93	4,445
328,14	3,710
328,35	4,782
328,56	4,839
328,77	4,916
328,98	6,341
329,19	2,118
329,40	4,564
329,61	1,707
329,82	0,807
330,04	5,321
330,25	2,798
330,46	2,584
330,67	2,676
330,88	4,530
331,09	1,976
331,30	3,702
331,51	5,296
331,72	4,992
331,93	5,158
332,14	0,740
332,35	5,241
332,56	3,822
332,77	7,484
332,98	3,340
333,19	4,380
333,40	5,150
333,61	2,534
333,82	3,408
334,03	3,738
334,24	9,951
334,45	5,334
334,66	5,940
334,87	2,419
335,08	2,166
335,29	1,818
335,50	3,855
335,71	1,727
335,92	6,878
336,13	2,544
336,34	-0,316
336,55	3,754
336,76	6,676
336,97	2,336
337,18	3,076
337,39	5,048
337,60	4,531
337,81	4,762
338,02	4,312
338,23	3,345
338,44	4,076
338,65	0,754
338,86	5,243
339,07	5,110
339,28	1,975
339,49	3,365
339,70	2,416
339,91	3,527
340,11	9,190
340,32	4,671
340,53	0,135
340,74	-0,271
340,95	1,233
341,16	3,812
341,37	3,708
341,58	5,582
341,79	1,823
342,00	1,169
342,21	-1,903
342,42	2,422
342,63	6,877
342,84	3,817
343,05	3,380
343,26	9,501
343,47	5,368
343,68	2,294
343,89	1,952
344,10	1,317
344,31	3,846
344,52	4,121
344,73	0,158
344,94	-0,229
345,14	5,200
345,35	4,202
345,56	0,143
345,77	1,871
345,98	1,683
346,19	3,672
346,40	6,569
346,61	0,103
346,82	2,575
347,03	7,577
347,24	1,478
347,45	3,231
347,66	5,892
347,87	1,724
348,08	7,121
348,28	1,804
348,49	2,598
348,70	6,650
348,91	4,779
349,12	2,972
349,33	-3,304
349,54	6,363
349,75	4,740
349,96	3,450
350,17	4,077
350,38	3,309
350,59	1,934
350,80	2,257
351,00	3,653
351,21	9,856
351,42	2,003
351,63	3,829
351,84	3,856
352,05	7,482
352,26	1,343
352,47	7,108
352,68	7,669
352,89	3,855
353,09	1,793
353,30	1,619
353,51	2,589
353,72	10,462
353,93	7,008
354,14	3,751
354,35	1,660
354,56	8,491
354,77	2,201
354,98	3,218
355,18	5,041
355,39	9,993
355,60	0,705
355,81	6,044
356,02	3,575
356,23	1,671
356,44	3,754
356,65	3,734
356,85	5,935
357,06	7,357
357,27	3,112
357,48	0,283
357,69	7,181
357,90	4,043
358,11	-2,898
358,32	1,680
358,52	5,997
358,73	1,329
358,94	4,158
359,15	3,560
359,36	7,618
359,57	4,658
359,78	8,298
359,98	4,092
360,19	2,625
360,40	2,941
360,61	6,937
360,82	2,826
361,03	11,264
361,24	15,089
361,44	2,945
361,65	3,896
361,86	1,832
362,07	6,341
362,28	9,694
362,49	6,711
362,70	6,954
362,90	3,170
363,11	2,929
363,32	3,160
363,53	3,307
363,74	10,953
363,95	8,106
364,15	0,047
364,36	8,696
364,57	2,574
364,78	-1,596
364,99	2,383
365,20	5,011
365,40	7,258
365,61	7,327
365,82	2,841
366,03	9,180
366,24	0,194
366,45	0,908
366,65	0,850
366,86	3,234
367,07	2,146
367,28	-0,563
367,49	3,290
367,69	7,458
367,90	3,791
368,11	4,388
368,32	3,381
368,53	7,867
368,73	3,639
368,94	3,090
369,15	6,384
369,36	8,247
369,57	6,180
369,78	3,999
369,98	3,751
370,19	5,789
370,40	2,773
370,61	5,284
370,82	7,398
371,02	8,714
371,23	3,092
371,44	5,394
371,65	2,810
371,85	8,543
372,06	2,528
372,27	5,249
372,48	3,424
372,69	8,609
372,89	4,104
373,10	6,360
373,31	5,532
373,52	3,945
373,73	7,732
373,93	6,932
374,14	6,241
374,35	3,006
374,56	4,748
374,76	5,186
374,97	3,963
375,18	7,853
375,39	5,061
375,60	5,937
375,80	4,998
376,01	2,243
376,22	8,872
376,43	4,852
376,63	5,398
376,84	5,424
377,05	5,255
377,26	2,994
377,46	4,475
377,67	3,625
377,88	0,811
378,09	5,137
378,29	5,161
378,50	4,484
378,71	4,805
378,92	3,605
379,12	1,272
379,33	3,139
379,54	6,459
379,75	6,907
379,95	7,316
380,16	5,337
380,37	6,053
380,58	2,291
380,78	6,013
380,99	1,494
381,20	5,023
381,41	7,878
381,61	4,503
381,82	5,832
382,03	6,160
382,24	4,577
382,44	4,391
382,65	5,305
382,86	10,610
383,06	8,312
383,27	6,434
383,48	5,232
383,69	8,493
383,89	2,595
384,10	1,574
384,31	6,228
384,51	12,129
384,72	9,417
384,93	3,760
385,14	4,256
385,34	5,165
385,55	3,629
385,76	1,961
385,96	9,610
386,17	4,735
386,38	4,190
386,59	11,848
386,79	7,738
387,00	13,028
387,21	10,158
387,41	5,989
387,62	6,715
387,83	8,435
388,03	4,255
388,24	5,734
388,45	7,911
388,66	6,624
388,86	5,947
389,07	5,562
389,28	14,994
389,48	6,906
389,69	5,985
389,90	5,296
390,10	4,795
390,31	10,503
390,52	4,382
390,72	8,081
390,93	8,715
391,14	9,459
391,34	8,694
391,55	9,184
391,76	10,213
391,96	12,369
392,17	7,604
392,38	8,875
392,58	7,779
392,79	5,545
393,00	6,946
393,20	9,645
393,41	9,924
393,62	10,719
393,82	6,836
394,03	9,760
394,24	7,479
394,44	9,982
394,65	12,067
394,86	9,324
395,06	12,571
395,27	10,981
395,48	8,843
395,68	7,579
395,89	9,702
396,10	13,234
396,30	6,826
396,51	6,337
396,72	9,781
396,92	7,928
397,13	11,304
397,34	7,622
397,54	10,519
397,75	9,682
397,95	8,848
398,16	9,747
398,37	13,331
398,57	3,253
398,78	8,296
398,99	13,619
399,19	14,322
399,40	17,253
399,60	9,046
399,81	14,800
400,02	17,457
400,22	15,769
400,43	14,167
400,64	10,959
400,84	10,134
401,05	16,484
401,25	14,414
401,46	11,215
401,67	16,695
401,87	10,674
402,08	11,149
402,29	13,719
402,49	19,345
402,70	16,111
402,90	11,041
403,11	14,012
403,32	11,082
403,52	11,467
403,73	12,157
403,93	16,575
404,14	23,229
404,35	13,693
404,55	11,589
404,76	15,522
404,96	15,793
405,17	20,008
405,38	22,179
405,58	14,491
405,79	19,156
405,99	19,253
406,20	14,523
406,40	13,915
406,61	18,640
406,82	17,549
407,02	18,446
407,23	13,083
407,43	17,953
407,64	12,835
407,85	18,408
408,05	12,526
408,26	23,945
408,46	26,782
408,67	17,800
408,87	16,714
409,08	15,855
409,29	24,094
409,49	22,275
409,70	19,038
409,90	20,295
410,11	21,543
410,31	21,295
410,52	20,362
410,72	17,682
410,93	25,269
411,14	18,958
411,34	13,418
411,55	20,356
411,75	20,896
411,96	20,957
412,16	22,769
412,37	18,277
412,57	22,486
412,78	25,389
412,99	18,922
413,19	22,627
413,40	19,948
413,60	19,247
413,81	21,023
414,01	20,080
414,22	22,779
414,42	22,322
414,63	19,967
414,83	21,600
415,04	25,110
415,24	24,779
415,45	20,161
415,65	23,944
415,86	28,574
416,07	20,579
416,27	22,585
416,48	27,499
416,68	31,300
416,89	20,472
417,09	26,744
417,30	29,843
417,50	19,647
417,71	26,514
417,91	25,178
418,12	24,295
418,32	24,422
418,53	18,486
418,73	23,813
418,94	22,922
419,14	26,750
419,35	21,611
419,55	23,655
419,76	28,686
419,96	25,262
420,17	24,227
420,37	23,240
420,58	27,044
420,78	27,724
420,99	24,063
421,19	30,384
421,40	31,113
421,60	30,709
421,81	22,330
422,01	24,653
422,22	25,244
422,42	29,218
422,63	29,290
422,83	30,021
423,04	34,010
423,24	35,676
423,45	26,515
423,65	24,725
423,86	30,240
424,06	30,509
424,27	21,818
424,47	27,297
424,67	23,693
424,88	28,415
425,08	26,323
425,29	31,918
425,49	22,320
425,70	25,217
425,90	27,483
426,11	26,132
426,31	28,848
426,52	30,468
426,72	26,720
426,93	25,016
427,13	31,794
427,33	26,014
427,54	29,001
427,74	29,030
427,95	32,915
428,15	28,142
428,36	26,879
428,56	27,150
428,77	28,345
428,97	30,201
429,18	28,658
429,38	26,855
429,58	25,961
429,79	30,514
429,99	23,693
430,20	29,543
430,40	30,581
430,61	27,408
430,81	28,126
431,01	33,222
431,22	33,124
431,42	30,881
431,63	24,371
431,83	29,612
432,04	32,033
432,24	28,556
432,44	29,102
432,65	26,672
432,85	27,358
433,06	32,392
433,26	28,226
433,47	27,175
433,67	26,499
433,87	28,243
434,08	29,212
434,28	24,483
434,49	28,994
434,69	38,071
434,89	33,000
435,10	27,459
435,30	33,262
435,51	26,489
435,71	25,748
435,91	29,452
436,12	30,440
436,32	31,626
436,53	28,231
436,73	25,849
436,93	31,319
437,14	30,429
437,34	27,957
437,55	29,122
437,75	30,606
437,95	33,931
438,16	26,160
438,36	29,770
438,57	30,003
438,77	28,195
438,97	31,490
439,18	30,116
439,38	30,563
439,58	31,458
439,79	31,063
439,99	22,725
440,20	35,927
440,40	32,341
440,60	32,529
440,81	29,856
441,01	28,126
441,21	33,694
441,42	29,318
441,62	31,912
441,83	30,044
442,03	29,260
442,23	31,643
442,44	29,900
442,64	31,435
442,84	28,005
443,05	34,007
443,25	29,150
443,45	32,263
443,66	28,827
443,86	27,873
444,06	31,667
444,27	30,313
444,47	32,511
444,67	32,867
444,88	31,458
445,08	30,561
445,28	27,220
445,49	29,229
445,69	31,602
445,90	31,965
446,10	32,884
446,30	28,619
446,51	29,801
446,71	31,778
446,91	32,713
447,12	34,788
447,32	26,145
447,52	33,143
447,72	35,340
447,93	26,123
448,13	27,598
448,33	36,695
448,54	33,139
448,74	25,029
448,94	31,655
449,15	31,193
449,35	27,930
449,55	34,562
449,76	29,451
449,96	29,624
450,16	30,331
450,37	26,389
450,57	30,171
450,77	29,704
450,98	29,532
451,18	33,390
451,38	32,393
451,58	30,667
451,79	27,124
451,99	30,621
452,19	31,112
452,40	37,792
452,60	26,520
452,80	33,261
453,00	31,698
453,21	24,556
453,41	30,715
453,61	30,128
453,82	31,107
454,02	28,116
454,22	44,303
454,42	32,289
454,63	29,329
454,83	26,895
455,03	38,942
455,24	31,211
455,44	30,616
455,64	30,346
455,84	30,837
456,05	25,727
456,25	22,745
456,45	28,267
456,65	30,497
456,86	31,347
457,06	32,999
457,26	34,407
457,47	34,766
457,67	28,329
457,87	26,390
458,07	32,458
458,28	32,931
458,48	37,343
458,68	26,742
458,88	38,154
459,09	31,649
459,29	37,152
459,49	24,927
459,69	34,164
459,90	30,933
460,10	30,144
460,30	35,234
460,50	29,458
460,71	33,392
460,91	26,847
461,11	34,236
461,31	31,774
461,52	33,720
461,72	31,410
461,92	28,139
462,12	37,118
462,32	27,343
462,53	28,282
462,73	28,514
462,93	30,906
463,13	35,408
463,34	27,550
463,54	32,606
463,74	27,269
463,94	28,281
464,14	32,776
464,35	28,229
464,55	36,933
464,75	37,047
464,95	28,714
465,16	27,854
465,36	35,946
465,56	27,621
465,76	28,726
465,96	32,334
466,17	30,602
466,37	27,845
466,57	34,463
466,77	31,328
466,97	29,263
467,18	33,371
467,38	33,498
467,58	37,272
467,78	35,641
467,98	29,353
468,19	35,080
468,39	31,628
468,59	27,346
468,79	32,043
468,99	32,839
469,19	29,204
469,40	30,213
469,60	28,525
469,80	30,014
470,00	31,535
470,20	34,340
470,41	29,884
470,61	34,030
470,81	34,014
471,01	31,587
471,21	36,176
471,41	33,091
471,62	32,627
471,82	30,090
472,02	30,352
472,22	30,052
472,42	29,976
472,62	34,040
472,83	26,806
473,03	31,754
473,23	30,489
473,43	33,790
473,63	32,055
473,83	30,875
474,03	30,790
474,24	32,045
474,44	29,179
474,64	28,901
474,84	26,213
475,04	27,382
475,24	31,877
475,45	31,604
475,65	29,700
475,85	31,963
476,05	23,249
476,25	28,732
476,45	31,863
476,65	33,102
476,85	27,642
477,06	30,519
477,26	27,346
477,46	27,620
477,66	31,705
477,86	30,377
478,06	32,593
478,26	36,081
478,46	28,658
478,67	33,878
478,87	29,342
479,07	30,792
479,27	33,977
479,47	28,707
479,67	25,883
479,87	28,253
480,07	33,538
480,28	29,972
480,48	28,769
480,68	32,409
480,88	36,135
481,08	33,820
481,28	31,893
481,48	31,566
481,68	28,755
481,88	26,448
482,08	28,257
482,29	32,312
482,49	27,584
482,69	28,478
482,89	28,599
483,09	34,516
483,29	27,429
483,49	28,028
483,69	29,133
483,89	30,179
484,09	26,297
484,29	27,428
484,50	30,394
484,70	30,180
484,90	29,122
485,10	31,244
485,30	31,323
485,50	35,825
485,70	31,205
485,90	28,010
486,10	26,363
486,30	26,473
486,50	28,810
486,70	26,239
486,90	26,434
487,10	31,647
487,30	31,388
487,51	28,170
487,71	26,547
487,91	28,673
488,11	31,962
488,31	27,040
488,51	28,364
488,71	26,535
488,91	29,667
489,11	27,828
489,31	28,619
489,51	29,933
489,71	28,439
489,91	28,731
490,11	31,299
490,31	29,269
490,51	30,150
490,71	31,269
490,91	27,095
491,11	29,622
491,31	31,272
491,51	29,321
491,72	28,376
491,92	29,385
492,12	33,830
492,32	29,893
492,52	31,464
492,72	27,642
492,92	29,193
493,12	30,932
493,32	28,590
493,52	26,952
493,72	28,749
493,92	30,050
494,12	28,148
494,32	30,688
494,52	28,085
494,72	29,054
494,92	27,681
495,12	30,175
495,32	34,042
495,52	31,744
495,72	28,179
495,92	30,441
496,12	33,423
496,32	31,874
496,52	28,540
496,72	31,703
496,92	30,633
497,12	30,034
497,32	31,699
497,52	32,402
497,72	30,423
497,92	31,342
498,12	28,803
498,32	32,477
498,52	29,063
498,72	29,029
498,92	29,979
499,12	32,319
499,32	27,471
499,52	32,461
499,72	30,086
499,92	33,024
500,12	30,784
500,32	30,159
500,52	30,542
500,72	34,120
500,91	34,758
501,11	33,187
501,31	30,065
501,51	32,550
501,71	31,156
501,91	32,717
502,11	29,359
502,31	31,226
502,51	32,619
502,71	32,509
502,91	28,108
503,11	32,571
503,31	30,221
503,51	25,857
503,71	29,678
503,91	32,610
504,11	29,249
504,31	32,401
504,51	27,968
504,71	35,827
504,91	26,926
505,10	32,465
505,30	30,130
505,50	31,135
505,70	29,789
505,90	30,934
506,10	29,081
506,30	31,568
506,50	31,952
506,70	32,244
506,90	30,479
507,10	28,051
507,30	28,524
507,50	30,304
507,70	33,028
507,89	32,718
508,09	30,064
508,29	28,052
508,49	27,688
508,69	30,701
508,89	29,023
509,09	30,303
509,29	29,113
509,49	31,727
509,69	31,985
509,89	32,585
510,09	31,489
510,28	32,498
510,48	29,802
510,68	29,926
510,88	28,503
511,08	32,532
511,28	29,596
511,48	30,213
511,68	27,246
511,88	36,530
512,07	29,841
512,27	29,477
512,47	30,280
512,67	28,803
512,87	27,551
513,07	30,594
513,27	28,278
513,47	29,443
513,67	27,033
513,86	32,608
514,06	31,477
514,26	30,584
514,46	32,808
514,66	29,000
514,86	30,972
515,06	34,602
515,26	33,145
515,45	30,342
515,65	28,489
515,85	30,550
516,05	27,028
516,25	29,418
516,45	32,918
516,65	28,837
516,84	28,946
517,04	32,454
517,24	29,282
517,44	32,159
517,64	31,893
517,84	33,274
518,04	29,902
518,23	30,366
518,43	33,024
518,63	30,138
518,83	26,761
519,03	29,807
519,23	28,817
519,42	31,099
519,62	30,982
519,82	29,990
520,02	30,265
520,22	33,067
520,42	28,700
520,61	30,762
520,81	30,877
521,01	32,724
521,21	28,954
521,41	29,146
521,61	34,627
521,80	29,785
522,00	29,049
522,20	33,970
522,40	30,808
522,60	30,408
522,79	28,698
522,99	34,967
523,19	28,415
523,39	30,828
523,59	30,283
523,78	30,204
523,98	30,109
524,18	32,836
524,38	26,841
524,58	33,290
524,77	31,393
524,97	31,468
525,17	27,616
525,37	29,279
525,57	33,891
525,76	31,184
525,96	34,095
526,16	29,446
526,36	28,953
526,56	29,745
526,75	33,534
526,95	32,933
527,15	28,313
527,35	30,738
527,55	26,760
527,74	29,271
527,94	29,158
528,14	28,561
528,34	30,635
528,53	29,460
528,73	34,261
528,93	31,055
529,13	28,419
529,32	29,779
529,52	30,574
529,72	30,254
529,92	29,413
530,12	29,211
530,31	30,707
530,51	33,228
530,71	27,716
530,91	33,998
531,10	26,997
531,30	31,272
531,50	27,861
531,70	31,547
531,89	32,136
532,09	27,475
532,29	30,266
532,49	28,029
532,68	30,569
532,88	27,391
533,08	28,253
533,28	30,545
533,47	31,667
533,67	30,464
533,87	29,220
534,06	35,226
534,26	28,425
534,46	30,546
534,66	30,199
534,85	31,337
535,05	27,218
535,25	28,306
535,45	27,697
535,64	32,810
535,84	30,984
536,04	26,373
536,23	30,628
536,43	32,717
536,63	29,968
536,83	29,933
537,02	29,354
537,22	27,035
537,42	30,852
537,61	31,546
537,81	28,369
538,01	30,107
538,20	29,247
538,40	27,157
538,60	28,260
538,80	28,430
538,99	29,392
539,19	26,690
539,39	27,912
539,58	29,248
539,78	27,919
539,98	26,934
540,17	23,799
540,37	28,482
540,57	25,090
540,76	25,714
540,96	21,116
541,16	26,743
541,36	25,448
541,55	20,958
541,75	21,649
541,95	24,059
542,14	22,198
542,34	19,685
542,54	18,943
542,73	24,175
542,93	22,254
543,13	21,095
543,32	20,643
543,52	22,581
543,72	21,888
543,91	22,171
544,11	19,541
544,31	17,670
544,50	21,753
544,70	24,175
544,89	22,913
545,09	23,722
545,29	22,083
545,48	24,706
545,68	21,197
545,88	23,867
546,07	22,229
546,27	23,937
546,47	25,480
546,66	27,299
546,86	23,375
547,06	26,086
547,25	24,130
547,45	24,570
547,64	28,125
547,84	30,611
548,04	27,019
548,23	33,983
548,43	27,632
548,63	29,085
548,82	28,627
549,02	29,722
549,21	26,142
549,41	28,213
549,61	28,427
549,80	26,041
550,00	28,779
550,20	26,181
550,39	29,119
550,59	30,155
550,78	30,139
550,98	28,216
551,18	29,790
551,37	29,429
551,57	27,774
551,76	28,216
551,96	27,874
552,16	27,704
552,35	29,255
552,55	28,103
552,74	27,685
552,94	30,973
553,14	26,943
553,33	29,557
553,53	29,909
553,72	27,131
553,92	31,219
554,12	28,369
554,31	31,383
554,51	28,669
554,70	25,635
554,90	28,899
555,09	34,167
555,29	28,003
555,49	29,393
555,68	31,772
555,88	26,188
556,07	27,227
556,27	33,539
556,46	28,372
556,66	26,686
556,86	34,298
557,05	30,788
557,25	28,481
557,44	28,137
557,64	26,781
557,83	29,089
558,03	30,254
558,22	27,576
558,42	29,912
558,62	30,588
558,81	32,400
559,01	30,377
559,20	32,008
559,40	29,294
559,59	28,991
559,79	28,840
559,98	28,653
560,18	29,721
560,37	31,091
560,57	29,208
560,76	26,408
560,96	27,445
561,16	29,789
561,35	27,929
561,55	30,482
561,74	31,692
561,94	30,324
562,13	30,367
562,33	31,712
562,52	29,730
562,72	27,463
562,91	29,248
563,11	28,274
563,30	31,562
563,50	28,412
563,69	28,147
563,89	26,790
564,08	29,580
564,28	27,518
564,47	31,222
564,67	31,529
564,86	27,974
565,06	27,792
565,25	26,474
565,45	28,106
565,64	32,078
565,84	28,791
566,03	26,075
566,23	30,062
566,42	30,189
566,62	28,372
566,81	28,004
567,01	27,366
567,20	29,271
567,40	29,064
567,59	28,488
567,79	31,569
567,98	32,255
568,18	28,321
568,37	31,474
568,57	29,617
568,76	29,636
568,96	30,085
569,15	27,136
569,35	30,414
569,54	32,531
569,73	29,975
569,93	28,785
570,12	28,150
570,32	30,147
570,51	28,645
570,71	30,730
570,90	29,200
571,10	29,800
571,29	28,820
571,49	27,475
571,68	30,493
571,87	30,665
572,07	31,031
572,26	25,667
572,46	29,875
572,65	30,827
572,85	27,992
573,04	30,856
573,24	29,863
573,43	31,610
573,62	29,694
573,82	30,098
574,01	31,153
574,21	26,583
574,40	28,786
574,60	26,728
574,79	31,756
574,98	28,914
575,18	29,641
575,37	26,772
575,57	27,765
575,76	30,478
575,96	30,020
576,15	29,687
576,34	28,179
576,54	30,768
576,73	31,075
576,93	28,838
577,12	29,822
577,31	30,249
577,51	27,777
577,70	29,327
577,90	28,360
578,09	29,374
578,28	28,063
578,48	28,615
578,67	29,314
578,87	29,380
579,06	28,053
579,25	30,311
579,45	30,550
579,64	27,364
579,84	27,498
580,03	29,332
580,22	30,901
580,42	28,397
580,61	29,805
580,81	29,730
581,00	29,585
581,19	30,853
581,39	28,514
581,58	27,402
581,77	27,157
581,97	30,493
582,16	29,577
582,35	27,940
582,55	29,586
582,74	30,665
582,94	30,057
583,13	29,166
583,32	28,329
583,52	28,821
583,71	28,327
583,90	28,671
584,10	30,652
584,29	30,389
584,48	27,094
584,68	27,472
584,87	31,209
585,06	28,870
585,26	27,172
585,45	28,515
585,65	30,479
585,84	27,725
586,03	27,942
586,23	26,918
586,42	29,188
586,61	33,085
586,81	28,889
587,00	26,993
587,19	28,236
587,39	29,117
587,58	28,420
587,77	28,279
587,97	26,410
588,16	27,916
588,35	26,469
588,54	28,582
588,74	28,605
588,93	32,187
589,12	29,471
589,32	27,177
589,51	28,840
589,70	26,633
589,90	25,827
590,09	26,593
590,28	30,592
590,48	26,019
590,67	28,800
590,86	27,735
591,06	26,986
591,25	29,474
591,44	29,474
591,63	29,574
591,83	27,789
592,02	28,603
592,21	28,482
592,41	28,203
592,60	30,253
592,79	29,097
592,98	29,941
593,18	27,302
593,37	27,755
593,56	27,805
593,76	29,485
593,95	28,370
594,14	27,223
594,33	30,325
594,53	30,119
594,72	27,488
594,91	29,199
595,10	28,367
595,30	27,927
595,49	28,176
595,68	29,493
595,88	31,844
596,07	28,808
596,26	30,090
596,45	28,512
596,65	25,221
596,84	28,298
597,03	29,854
597,22	28,261
597,42	30,923
597,61	28,166
597,80	30,201
597,99	28,204
598,19	29,373
598,38	28,920
598,57	28,347
598,76	30,336
598,95	29,416
599,15	28,925
599,34	28,281
599,53	27,579
599,72	27,967
599,92	30,926
600,11	28,964
600,30	29,096
600,49	33,522
600,69	28,223
600,88	29,958
601,07	28,745
601,26	26,097
601,45	27,778
601,65	27,444
601,84	28,904
602,03	27,901
602,22	29,468
602,42	31,125
602,61	28,336
602,80	29,917
602,99	28,043
603,18	26,889
603,38	31,331
603,57	27,065
603,76	27,597
603,95	27,147
604,14	29,261
604,34	27,416
604,53	28,158
604,72	29,427
604,91	28,911
605,10	29,701
605,29	31,062
605,49	26,980
605,68	29,813
605,87	31,098
606,06	29,556
606,25	28,184
606,45	29,307
606,64	27,797
606,83	30,697
607,02	26,963
607,21	29,344
607,40	28,611
607,60	25,816
607,79	27,002
607,98	27,636
608,17	28,154
608,36	27,572
608,55	26,545
608,75	28,482
608,94	27,661
609,13	24,194
609,32	23,446
609,51	26,741
609,70	27,187
609,89	24,938
610,09	23,311
610,28	24,366
610,47	25,457
610,66	23,984
610,85	21,525
611,04	26,126
611,23	21,729
611,43	22,395
611,62	24,415
611,81	22,447
612,00	25,465
612,19	23,853
612,38	24,247
612,57	25,450
612,77	24,456
612,96	25,151
613,15	25,649
613,34	26,615
613,53	25,700
613,72	25,962
613,91	25,428
614,10	26,490
614,29	28,064
614,49	26,164
614,68	27,023
614,87	27,243
615,06	30,423
615,25	26,396
615,44	27,799
615,63	27,552
615,82	26,801
616,01	27,063
616,21	24,822
616,40	27,697
616,59	28,598
616,78	26,132
616,97	28,743
617,16	27,470
617,35	28,135
617,54	27,538
617,73	27,302
617,92	26,513
618,11	28,211
618,31	26,789
618,50	28,337
618,69	26,570
618,88	27,790
619,07	24,113
619,26	26,002
619,45	25,554
619,64	25,086
619,83	26,108
620,02	27,936
620,21	29,282
620,40	28,391
620,59	27,737
620,78	26,006
620,97	27,513
621,17	29,574
621,36	25,945
621,55	26,006
621,74	27,443
621,93	27,976
622,12	27,488
622,31	27,063
622,50	26,728
622,69	28,777
622,88	28,331
623,07	29,560
623,26	28,237
623,45	30,234
623,64	26,400
623,83	26,631
624,02	28,152
624,21	27,374
624,40	27,002
624,59	24,973
624,78	26,532
624,97	28,535
625,16	25,762
625,35	26,193
625,54	25,296
625,73	26,838
625,92	28,108
626,12	28,242
626,31	28,292
626,50	29,316
626,69	27,640
626,88	28,742
627,07	26,897
627,26	26,920
627,45	28,530
627,64	26,098
627,83	27,744
628,02	25,221
628,21	26,280
628,40	26,843
628,59	28,750
628,78	25,102
628,97	26,815
629,16	25,788
629,35	27,191
629,54	28,650
629,73	27,925
629,92	24,317
630,10	27,630
630,29	27,639
630,48	25,540
630,67	24,789
630,86	27,861
631,05	25,905
631,24	29,006
631,43	26,041
631,62	26,806
631,81	25,142
632,00	27,285
632,19	24,584
632,38	26,340
632,57	28,207
632,76	24,425
632,95	27,202
633,14	28,400
633,33	28,062
633,52	26,798
633,71	27,384
633,90	24,606
634,09	26,914
634,28	28,159
634,47	26,763
634,66	27,207
634,85	28,115
635,04	28,157
635,22	25,690
635,41	27,268
635,60	28,664
635,79	28,485
635,98	26,633
636,17	27,371
636,36	25,240
636,55	24,479
636,74	25,716
636,93	26,995
637,12	26,539
637,31	26,149
637,50	25,973
637,69	27,699
637,87	29,261
638,06	25,839
638,25	25,384
638,44	26,480
638,63	25,111
638,82	25,540
639,01	26,689
639,20	26,937
639,39	28,914
639,58	27,689
639,77	27,756
639,95	25,583
640,14	28,321
640,33	26,578
640,52	27,190
640,71	29,042
640,90	27,019
641,09	27,901
641,28	26,097
641,47	27,588
641,66	27,705
641,84	29,547
642,03	24,708
642,22	25,785
642,41	30,171
642,60	26,278
642,79	26,723
642,98	28,217
643,17	27,634
643,35	24,244
643,54	26,205
643,73	26,294
643,92	26,988
644,11	26,959
644,30	25,963
644,49	27,667
644,67	26,616
644,86	25,611
645,05	27,154
645,24	25,931
645,43	24,695
645,62	26,270
645,81	25,479
645,99	26,295
646,18	28,493
646,37	27,041
646,56	24,614
646,75	26,616
646,94	28,896
647,13	24,862
647,31	26,642
647,50	24,656
647,69	28,457
647,88	26,978
648,07	28,263
648,26	30,787
648,44	25,164
648,63	27,262
648,82	26,305
649,01	28,927
649,20	25,004
649,38	28,319
649,57	27,231
649,76	26,180
649,95	27,920
650,14	24,641
650,33	26,417
650,51	27,386
650,70	26,304
650,89	26,872
651,08	27,788
651,27	27,037
651,45	25,410
651,64	24,752
651,83	25,660
652,02	25,272
652,21	26,386
652,39	28,461
652,58	28,665
652,77	29,368
652,96	26,574
653,15	28,651
653,33	27,162
653,52	27,330
653,71	29,376
653,90	27,578
654,09	27,812
654,27	28,591
654,46	28,673
654,65	27,464
654,84	27,859
655,02	28,945
655,21	27,430
655,40	29,430
655,59	27,503
655,77	28,810
655,96	28,484
656,15	30,129
656,34	28,825
656,53	27,845
656,71	29,392
656,90	29,328
657,09	28,885
657,28	29,281
657,46	27,568
657,65	26,905
657,84	26,575
658,03	26,660
658,21	27,791
658,40	26,486
658,59	26,044
658,78	27,018
658,96	25,076
659,15	27,659
659,34	25,354
659,52	26,796
659,71	26,768
659,90	26,401
660,09	26,314
660,27	26,744
660,46	28,309
660,65	27,188
660,84	25,535
661,02	26,803
661,21	27,524
661,40	29,707
661,58	25,845
661,77	26,779
661,96	25,049
662,15	26,564
662,33	26,900
662,52	27,283
662,71	26,703
662,89	25,278
663,08	28,156
663,27	27,679
663,45	26,082
663,64	27,777
663,83	25,749
664,02	25,131
664,20	27,036
664,39	25,766
664,58	26,708
664,76	25,538
664,95	26,554
665,14	27,334
665,32	25,657
665,51	26,772
665,70	27,187
665,88	28,323
666,07	25,338
666,26	28,813
666,44	28,634
666,63	24,887
666,82	25,082
667,00	26,435
667,19	24,801
667,38	26,956
667,56	27,149
667,75	27,537
667,94	26,790
668,12	26,147
668,31	28,828
668,50	27,493
668,68	27,758
668,87	25,643
669,06	25,774
669,24	28,366
669,43	26,045
669,62	25,177
669,80	24,984
669,99	25,507
670,18	26,184
670,36	24,592
670,55	29,085
670,74	24,467
670,92	22,869
671,11	29,423
671,29	24,855
671,48	25,927
671,67	26,033
671,85	26,932
672,04	25,682
672,23	26,440
672,41	26,458
672,60	25,819
672,78	27,119
672,97	26,144
673,16	27,754
673,34	27,923
673,53	24,690
673,71	27,884
673,90	26,589
674,09	25,476
674,27	26,288
674,46	26,036
674,64	26,051
674,83	26,741
675,02	25,091
675,20	25,952
675,39	26,094
675,57	25,547
675,76	26,485
675,95	28,821
676,13	26,606
676,32	25,457
676,50	25,759
676,69	24,899
676,88	26,847
677,06	24,531
677,25	27,709
677,43	28,412
677,62	27,436
677,80	26,426
677,99	25,970
678,18	28,051
678,36	27,942
678,55	24,145
678,73	24,762
678,92	26,188
679,10	26,458
679,29	26,237
679,48	23,978
679,66	26,588
679,85	26,744
680,03	27,083
680,22	25,116
680,40	26,260
680,59	26,556
680,77	24,838
680,96	26,189
681,15	25,345
681,33	28,640
681,52	25,688
681,70	25,847
681,89	29,322
682,07	25,176
682,26	25,913
682,44	27,689
682,63	26,001
682,81	28,899
683,00	26,207
683,18	24,777
683,37	27,838
683,55	24,952
683,74	27,356
683,92	30,941
684,11	27,101
684,29	26,088
684,48	25,318
684,67	25,634
684,85	26,699
685,04	28,068
685,22	26,210
685,41	26,386
685,59	26,446
685,78	25,211
685,96	26,255
686,15	25,949
686,33	25,215
686,52	24,948
686,70	25,815
686,89	25,926
687,07	27,243
687,26	26,047
687,44	26,070
687,62	25,897
687,81	27,480
687,99	27,361
688,18	26,816
688,36	27,475
688,55	29,260
688,73	25,155
688,92	24,516
689,10	26,402
689,29	27,826
689,47	27,993
689,66	25,926
689,84	26,457
690,03	30,564
690,21	24,704
690,40	24,787
690,58	24,275
690,76	24,965
690,95	25,944
691,13	25,032
691,32	25,363
691,50	25,358
691,69	28,201
691,87	25,816
692,06	25,856
692,24	25,412
692,43	27,286
692,61	27,472
692,79	26,085
692,98	25,487
693,16	27,495
693,35	24,804
693,53	26,731
693,72	26,384
693,90	28,359
694,08	24,575
694,27	25,893
694,45	27,727
694,64	29,970
694,82	24,794
695,01	25,995
695,19	25,294
695,37	28,052
695,56	25,416
695,74	27,699
695,93	27,395
696,11	24,854
696,29	27,305
696,48	26,973
696,66	27,057
696,85	24,467
697,03	24,900
697,21	26,856
697,40	28,848
697,58	26,194
697,77	27,947
697,95	25,753
698,13	25,490
698,32	25,055
698,50	23,644
698,69	24,463
698,87	26,170
699,05	27,949
699,24	25,668
699,42	24,964
699,60	23,281
699,79	24,850
699,97	23,809
700,16	24,611
700,34	30,219
700,52	25,415
700,71	26,439
700,89	24,905
701,07	24,505
701,26	25,879
701,44	23,963
701,63	25,311
701,81	25,772
701,99	27,393
702,18	24,826
702,36	25,840
702,54	28,390
702,73	26,143
702,91	24,567
703,09	24,345
703,28	23,809
703,46	26,464
703,64	26,459
703,83	26,149
704,01	26,155
704,19	26,619
704,38	23,313
704,56	25,068
704,74	27,357
704,93	24,424
705,11	25,877
705,29	25,680
705,48	29,499
705,66	25,107
705,84	26,070
706,03	23,467
706,21	24,805
706,39	25,093
706,58	23,229
706,76	25,775
706,94	26,433
707,12	25,897
707,31	24,738
707,49	25,352
707,67	24,808
707,86	28,998
708,04	26,505
708,22	26,067
708,41	27,460
708,59	25,654
708,77	25,991
708,95	26,183
709,14	28,312
709,32	26,042
709,50	23,394
709,69	26,664
709,87	26,485
710,05	23,708
710,23	23,596
710,42	25,184
710,60	25,806
710,78	27,617
710,97	26,623
711,15	26,137
711,33	24,682
711,51	23,923
711,70	24,225
711,88	25,435
712,06	27,823
712,24	26,329
712,43	24,916
712,61	23,722
712,79	25,725
712,97	24,308
713,16	25,168
713,34	24,042
713,52	26,960
713,70	25,561
713,89	24,510
714,07	24,727
714,25	26,443
714,43	26,622
714,62	23,926
714,80	23,864
714,98	22,928
715,16	25,342
715,35	23,433
715,53	26,133
715,71	27,223
715,89	29,069
716,07	28,547
716,26	25,034
716,44	27,069
716,62	26,390
716,80	26,565
716,99	25,889
717,17	29,712
717,35	25,933
717,53	25,248
717,71	23,727
717,90	27,663
718,08	26,809
718,26	25,824
718,44	26,933
718,62	27,842
718,81	25,169
718,99	25,523
719,17	25,085
719,35	25,153
719,53	25,558
719,72	22,854
719,90	23,986
720,08	25,240
720,26	27,671
720,44	25,449
720,62	25,610
720,81	28,878
720,99	27,511
721,17	24,231
721,35	27,505
721,53	23,724
721,72	27,706
721,90	25,296
722,08	25,335
722,26	26,228
722,44	25,589
722,62	23,421
722,81	24,521
722,99	25,996
723,17	25,986
723,35	25,757
723,53	26,249
723,71	26,623
723,89	29,188
724,08	26,526
724,26	24,584
724,44	26,856
724,62	27,357
724,80	22,649
724,98	25,317
725,16	28,583
725,35	25,632
725,53	26,216
725,71	25,071
725,89	25,584
726,07	30,056
726,25	28,549
726,43	24,550
726,61	26,462
726,80	27,488
726,98	25,508
727,16	23,848
727,34	27,569
727,52	25,351
727,70	25,802
727,88	25,253
728,06	22,975
728,25	22,565
728,43	24,650
728,61	25,387
728,79	25,726
728,97	27,235
729,15	25,065
729,33	27,067
729,51	26,869
729,69	26,252
729,87	25,647
730,06	28,088
730,24	26,499
730,42	27,991
730,60	26,499
730,78	27,681
730,96	26,595
731,14	26,455
731,32	26,118
731,50	25,155
731,68	23,140
731,86	28,899
732,04	26,824
732,22	26,245
732,41	33,763
732,59	27,771
732,77	26,321
732,95	27,660
733,13	26,625
733,31	28,055
733,49	24,105
733,67	26,818
733,85	27,773
734,03	25,906
734,21	25,381
734,39	26,845
734,57	26,567
734,75	26,585
734,93	23,223
735,11	27,625
735,29	23,768
735,47	26,912
735,65	24,597
735,84	24,931
736,02	26,132
736,20	29,202
736,38	25,525
736,56	26,781
736,74	26,498
736,92	25,617
737,10	25,484
737,28	27,953
737,46	24,927
737,64	26,164
737,82	25,094
738,00	28,310
738,18	28,343
738,36	27,317
738,54	24,806
738,72	26,373
738,90	26,488
739,08	28,120
739,26	23,995
739,44	25,604
739,62	28,620
739,80	27,904
739,98	26,406
740,16	24,671
740,34	25,819
740,52	29,722
740,70	25,444
740,88	25,954
741,06	26,590
741,24	25,752
741,42	25,461
741,60	24,787
741,78	25,988
741,96	26,811
742,14	26,469
742,32	25,199
742,50	23,761
742,68	27,668
742,86	25,503
743,04	24,502
743,21	26,728
743,39	26,722
743,57	26,847
743,75	27,127
743,93	23,803
744,11	21,712
744,29	25,014
744,47	24,284
744,65	26,722
744,83	25,225
745,01	23,865
745,19	23,683
745,37	30,035
745,55	26,491
745,73	28,291
745,91	25,559
746,09	25,777
746,27	24,874
746,45	25,677
746,62	26,103
746,80	24,618
746,98	25,336
747,16	22,699
747,34	25,035
747,52	25,231
747,70	27,677
747,88	27,538
748,06	25,946
748,24	25,908
748,42	28,286
748,60	26,486
748,78	22,817
748,95	28,200
749,13	29,936
749,31	24,946
749,49	26,703
749,67	26,326
749,85	26,936
750,03	25,969
750,21	26,066
750,39	27,377
750,57	24,038
750,74	28,056
750,92	25,735
751,10	27,238
751,28	25,600
751,46	27,288
751,64	27,005
751,82	27,123
752,00	27,729
752,17	26,662
752,35	28,595
752,53	27,387
752,71	24,692
752,89	25,844
753,07	24,011
753,25	25,481
753,43	24,084
753,60	27,620
753,78	27,730
753,96	27,535
754,14	27,141
754,32	29,172
754,50	27,723
754,68	29,372
754,85	25,777
755,03	27,086
755,21	28,349
755,39	30,068
755,57	25,868
755,75	26,498
755,92	26,673
756,10	26,093
756,28	25,637
756,46	26,127
756,64	25,559
756,82	26,692
756,99	26,397
757,17	24,213
757,35	24,353
757,53	31,203
757,71	31,397
757,89	25,619
758,06	26,951
758,24	27,686
758,42	26,401
758,60	24,383
758,78	27,927
758,95	27,341
759,13	25,894
759,31	27,351
759,49	25,130
759,67	27,651
759,84	25,976
760,02	26,591
760,20	24,017
760,38	27,483
760,56	24,239
760,73	25,013
760,91	24,636
761,09	28,861
761,27	26,346
761,45	26,881
761,62	23,427
761,80	24,467
761,98	26,566
762,16	28,607
762,33	24,244
762,51	27,865
762,69	24,625
762,87	26,541
763,05	28,827
763,22	27,233
763,40	26,657
763,58	25,862
763,76	25,739
763,93	26,891
764,11	28,060
764,29	26,601
764,47	27,780
764,64	27,301
764,82	28,576
765,00	26,269
765,18	23,479
765,35	26,933
765,53	24,543
765,71	28,040
765,89	24,866
766,06	25,231
766,24	26,988
766,42	27,026
766,60	24,760
766,77	25,144
766,95	26,269
767,13	26,850
767,30	24,648
767,48	24,352
767,66	24,739
767,84	23,498
768,01	26,277
768,19	26,290
768,37	23,436
768,54	26,142
768,72	26,973
768,90	26,138
769,08	25,962
769,25	25,625
769,43	24,629
769,61	24,083
769,78	27,025
769,96	24,988
770,14	25,398
770,31	28,102
770,49	28,989
770,67	25,002
770,85	23,731
771,02	27,018
771,20	26,584
771,38	25,832
771,55	26,920
771,73	23,153
771,91	27,312
772,08	27,957
772,26	27,340
772,44	26,523
772,61	25,393
772,79	24,651
772,97	24,487
773,14	24,052
773,32	27,759
773,50	24,978
773,67	26,959
773,85	26,462
774,03	27,290
774,20	27,019
774,38	26,548
774,56	25,832
774,73	23,652
774,91	23,222
775,09	24,616
775,26	26,883
775,44	27,625
775,61	26,451
775,79	24,655
775,97	28,649
776,14	26,029
776,32	27,744
776,50	26,047
776,67	27,032
776,85	27,521
777,03	24,160
777,20	26,535
777,38	28,465
777,55	26,646
777,73	27,520
777,91	22,693
778,08	25,260
778,26	25,508
778,43	27,828
778,61	25,341
778,79	24,441
778,96	28,462
779,14	24,044
779,32	24,325
779,49	24,021
779,67	30,628
779,84	29,936
780,02	25,885
780,20	25,978
780,37	29,223
780,55	21,667
780,72	25,429
780,90	26,205
781,07	27,454
781,25	28,708
781,43	26,406
781,60	26,140
781,78	26,663
781,95	27,693
782,13	26,300
782,30	27,135
782,48	27,505
782,66	25,960
782,83	26,535
783,01	32,877
783,18	28,445
783,36	29,226
783,53	27,412
783,71	23,609
783,89	26,292
784,06	27,916
784,24	26,076
784,41	26,251
784,59	25,438
784,76	31,515
784,94	24,542
785,11	26,888
785,29	26,826
785,46	26,327
785,64	25,469
785,82	28,043
785,99	28,562
786,17	29,521
786,34	25,848
786,52	31,482
786,69	27,677
786,87	25,753
787,04	25,195
787,22	24,948
787,39	27,471
787,57	30,009
787,74	24,483
787,92	31,380
788,09	28,449
788,27	27,457
788,44	25,460
788,62	30,652
788,79	24,679
788,97	26,850
789,14	27,482
789,32	26,016
789,49	27,034
789,67	27,872
789,84	25,129
790,02	29,354
790,19	23,222
790,37	28,914
790,54	25,872
790,72	32,116
790,89	28,703
791,07	30,328
791,24	23,125
791,42	28,086
791,59	30,826
791,77	23,803
791,94	28,452
792,12	25,688
792,29	29,285
792,47	28,780
792,64	28,223
792,81	28,989
792,99	24,352
793,16	25,209
793,34	26,092
793,51	27,458
793,69	28,407
793,86	23,927
794,04	26,838
794,21	28,927
794,39	24,802
794,56	27,473
794,73	30,798
794,91	30,970
795,08	27,050
795,26	26,433
795,43	25,107
795,61	28,994
795,78	26,861
795,95	28,867
796,13	30,481
796,30	30,506
796,48	25,150
796,65	22,419
796,83	28,133
797,00	29,412
797,17	25,260
797,35	25,771
797,52	29,171
797,70	29,892
797,87	28,097
798,04	32,182
798,22	23,835
798,39	26,428
798,57	28,052
798,74	30,340
798,91	25,254
799,09	28,199
799,26	30,874
799,44	28,737
799,61	24,020
799,78	26,317
799,96	31,318
800,13	24,724
800,31	30,980
800,48	29,061
800,65	32,014
800,83	29,399
801,00	28,021
801,17	26,299
801,35	31,415
801,52	30,962
801,70	31,187
801,87	28,533
802,04	30,355
802,22	24,594
802,39	27,674
802,56	31,851
802,74	32,995
802,91	26,974
803,08	25,104
803,26	29,880
803,43	34,863
803,61	24,020
803,78	28,460
803,95	29,313
804,13	27,981
804,30	24,263
804,47	28,152
804,65	29,501
804,82	28,851
804,99	28,972
805,17	25,957
805,34	34,703
805,51	30,318
805,69	25,520
805,86	30,162
806,03	34,982
806,21	31,674
806,38	30,886
806,55	25,397
806,72	31,032
806,90	32,103
807,07	27,012
807,24	27,720
807,42	24,638
807,59	29,085
807,76	23,057
807,94	29,158
808,11	33,253
808,28	33,114
808,45	30,194
808,63	26,818
808,80	35,212
808,97	27,140
809,15	29,701
809,32	30,436
809,49	29,983
809,67	28,161
809,84	32,591
810,01	33,708
810,18	39,875
810,36	33,475
810,53	30,209
810,70	30,144
810,87	27,983
811,05	31,811
811,22	31,880
811,39	25,964
811,57	31,094
811,74	25,214
811,91	35,481
812,08	26,258
812,26	27,194
812,43	25,636
812,60	36,044
812,77	31,281
812,95	29,559
813,12	28,432
813,29	26,851
813,46	29,511
813,64	32,746
813,81	31,844
813,98	30,077
814,15	32,468
814,32	33,427
814,50	28,844
814,67	29,076
814,84	33,373
815,01	28,611
815,19	25,438
815,36	26,348
815,53	29,109
815,70	28,924
815,87	35,123
816,05	28,918
816,22	32,920
816,39	32,006
816,56	34,691
816,74	35,596
816,91	32,760
817,08	33,917
817,25	36,529
817,42	33,003
817,60	32,282
817,77	35,537
817,94	29,907
818,11	27,512
818,28	24,456
818,45	30,704
818,63	29,900
818,80	28,390
818,97	26,907
819,14	32,029
819,31	34,425
819,49	32,258
819,66	27,495
819,83	35,489
820,00	37,326
820,17	27,316
820,34	32,445
820,52	33,969
820,69	34,058
820,86	29,078
821,03	31,508
821,20	35,110
821,37	39,119
821,55	29,962
821,72	27,155
821,89	34,757
822,06	34,801
822,23	27,713
822,40	31,190
822,57	37,711
822,75	31,894
822,92	25,342
823,09	35,381
823,26	36,561
823,43	32,660
823,60	28,383
823,77	29,749
823,94	37,230
824,12	35,593
824,29	26,176
824,46	31,148
824,63	43,127
824,80	35,948
824,97	28,830
825,14	30,291
825,31	31,409
825,49	31,952
825,66	19,725
825,83	30,025
826,00	28,784
826,17	43,141
826,34	31,254
826,51	28,698
826,68	25,968
826,85	29,007
827,02	25,901
827,20	30,100
827,37	30,549
827,54	37,571
827,71	35,951
827,88	33,618
828,05	33,996
828,22	35,073
828,39	39,137
828,56	35,373
828,73	29,627
828,90	32,091
829,07	30,739
829,25	28,364
829,42	29,321
829,59	25,222
829,76	31,374
829,93	31,988
830,10	34,340
830,27	32,811
830,44	28,887
830,61	19,913
830,78	40,413
830,95	36,413
831,12	34,392
831,29	30,873
831,46	25,617
831,63	27,863
831,80	35,586
831,97	28,058
832,14	37,906
832,31	39,131
832,48	29,830
832,65	34,543
832,83	29,428
833,00	38,725
833,17	29,821
833,34	29,423
833,51	37,029
833,68	41,367
833,85	32,321
834,02	26,892
834,19	35,037
834,36	34,875
834,53	23,855
834,70	28,982
834,87	46,698
835,04	31,787
835,21	36,395
835,38	32,856
835,55	28,709
835,72	51,849
835,89	33,400
836,06	30,155
836,23	48,369
836,40	30,293
836,57	35,261
836,74	34,386
836,91	33,555
837,08	48,644
837,25	35,317
837,42	31,543
837,59	29,726
837,76	38,285
837,93	32,319
838,09	33,865
838,26	33,979
838,43	45,904
838,60	38,601
838,77	36,588
838,94	36,286
839,11	51,884
839,28	38,391
839,45	33,794
839,62	37,006
839,79	32,126
839,96	40,129
840,13	35,539
840,30	29,546
840,47	37,138
840,64	46,206
840,81	30,842
840,98	35,743
841,15	43,734
841,32	33,822
841,48	39,144
841,65	39,846
841,82	33,252
841,99	32,604
842,16	37,961
842,33	34,975
842,50	43,563
842,67	25,408
842,84	29,632
843,01	42,215
843,18	28,629
843,35	37,239
843,52	33,340
843,68	39,902
843,85	33,570
844,02	21,010
844,19	34,006
844,36	38,671
844,53	35,672
844,70	23,756
844,87	44,914
845,04	42,510
845,21	20,008
845,37	42,626
845,54	35,225
845,71	38,090
845,88	55,137
846,05	34,329
846,22	17,796
846,39	35,785
846,56	45,251
846,72	20,882
846,89	33,759
847,06	50,721
847,23	45,312
847,40	22,925
847,57	28,796
847,74	27,576
847,90	46,520
848,07	42,435
848,24	36,172
848,41	46,517
848,58	53,086
848,75	31,718
848,92	27,585
849,08	35,943
849,25	40,352
849,42	30,742
849,59	33,690
849,76	27,719
849,93	45,952
850,09	41,496
850,26	24,659
850,43	44,600
850,60	28,009
850,77	30,778
850,94	32,433
851,10	32,635
851,27	34,928
851,44	36,290
851,61	26,457
851,78	59,055
851,95	47,663
852,11	34,404
852,28	19,455
852,45	51,393
852,62	58,129
852,79	45,388
852,95	34,523
853,12	41,281
853,29	28,793
853,46	26,522
853,63	42,347
853,79	25,161
853,96	32,538
854,13	54,033
854,30	39,587
854,46	52,035
854,63	37,468
854,80	38,953
854,97	39,592
855,14	63,151
855,30	45,998
855,47	51,394
855,64	52,748
855,81	35,382
855,97	58,086
856,14	41,567
856,31	24,989
856,48	56,866
856,65	50,206
856,81	32,785
856,98	29,365
857,15	26,243
857,32	53,859
857,48	33,472
857,65	58,847
857,82	49,820
857,99	42,918
858,15	48,759
858,32	36,811
858,49	38,148
858,65	57,459
858,82	38,471
858,99	47,012
859,16	48,317
859,32	49,640
859,49	49,574
859,66	49,322
859,83	50,482
859,99	35,090
860,16	38,369
860,33	43,938
860,49	45,767
860,66	27,823
860,83	38,263
861,00	42,425
861,16	60,576
861,33	59,106
861,50	22,928
861,66	49,649
861,83	52,348
862,00	35,909
862,16	29,426
862,33	46,480
862,50	73,908
862,67	42,618
862,83	32,502
863,00	50,526
863,17	54,330
863,33	36,180
863,50	15,467
863,67	48,750
863,83	42,852
864,00	55,643
864,17	33,835
864,33	28,538
864,50	31,458
864,67	55,278
864,83	35,084
865,00	46,868
865,17	32,356
865,33	48,556
865,50	39,539
865,67	36,825
865,83	64,079
866,00	63,286
866,17	61,547
866,33	54,618
866,50	37,331
866,66	40,568
866,83	46,573
867,00	58,054
867,16	78,355
867,33	90,366
867,50	34,257
867,66	46,521
867,83	48,662
868,00	46,078
868,16	47,348
868,33	48,783
868,49	44,876
868,66	61,955
868,83	51,184
868,99	46,891
869,16	75,685
869,32	75,764
869,49	51,914
869,66	38,622
869,82	78,280
869,99	86,593
870,15	54,814
870,32	56,207
870,49	116,232
870,65	83,390
870,82	46,997
870,98	59,289
871,15	83,417
871,32	81,035
871,48	54,210
871,65	36,446
871,81	37,015
871,98	28,844
872,15	34,347
872,31	38,037
872,48	72,463
872,64	52,483
872,81	78,535
872,97	36,960
873,14	106,909
873,31	49,914
873,47	60,454
873,64	62,586
873,80	95,430
873,97	96,374
874,13	67,632
874,30	61,727
874,46	47,172
874,63	59,548
874,80	28,657
874,96	46,586
875,13	97,715
875,29	28,411
875,46	75,784
875,62	18,574
875,79	101,957
875,95	65,995
876,12	28,070
876,28	16,358
876,45	127,336
876,61	33,524
876,78	20,892
876,94	35,117
877,11	58,394
877,27	166,443
877,44	51,589
877,60	53,759
877,77	85,666
877,94	133,219
878,10	56,788
878,27	63,769
878,43	135,043
878,60	37,418
878,76	90,280
878,93	98,573
879,09	57,873
879,26	117,435
879,42	66,349
879,58	60,177
879,75	122,787
879,91	114,596
880,08	60,824
880,24	44,250
880,41	31,826
880,57	71,755
880,74	138,560
880,90	42,781
881,07	96,804
881,23	139,210
881,40	76,749
881,56	46,434
881,73	146,491
881,89	94,224
882,06	57,560
882,22	146,512
882,38	120,631
882,55	148,467
882,71	90,818
882,88	42,931
883,04	78,374
883,21	95,299
883,37	152,465
883,54	97,284
883,70	218,287
883,86	138,532
884,03	128,097
884,19	64,934
884,36	150,596
884,52	147,171
884,69	81,432
884,85	45,107
885,01	70,043
885,18	144,458
885,34	94,556
885,51	23,201
885,67	101,241
>>>>> Data<<<<< Espectral Procesado Extremo
