Fichero De Datos De SpectraSuite
++++++++++++++++++++++++++++++++++++
Fecha: Wed Apr 22 08:52:51 CEST 2009
Usuario: evoflor
Presente Oscuro Del Espectro: Sí
La Referencia de Presente Del Espectro De: Sí
Muestreados de los componentes de Número de espectros: 1
Espectrómetros: USB4F02353
Tiempo de integración (usec): 500000 (USB4F02353)
Promedio de Espectros Hechos un: 5 (USB4F02353)
El Alisar Del Furgón: 0 (USB4F02353)
Párrafo de de Corregir del la del del de Eléctrica del obscuridad: Sí (USB4F02353)
Estrobo/Lámpara Permitido: No (USB4F02353)
Correct for Detector Non-linearity: No (USB4F02353)
Párrafo de de Corregir del la del del de Externa del luz: No (USB4F02353)
Procesado del espectro de Número de pixeles en: 3648
>>>>> Comienza Data<<<<< Espectral Procesado Del EL
177,79	888,428
178,00	888,428
178,22	888,428
178,44	-9333,111
178,66	608,478
178,88	207,422
179,09	168,380
179,31	234,640
179,53	-4766,361
179,75	339,748
179,96	-285,552
180,18	344,707
180,40	-337,422
180,62	-208,828
180,83	357,443
181,05	-620,886
181,27	-221,722
181,49	152,291
181,70	-268,236
181,92	350,162
182,14	212,685
182,36	-1564,493
182,58	215,928
182,79	-1002,669
183,01	-13055,773
183,23	430,073
183,45	-52,522
183,66	184,908
183,88	942,788
184,10	691,725
184,32	1089,255
184,53	-322,442
184,75	542,054
184,97	-239,743
185,18	1749,104
185,40	312,514
185,62	-732,580
185,84	1961,949
186,05	4863,390
186,27	-5696,326
186,49	-580,972
186,71	307,145
186,92	640,018
187,14	1404,744
187,36	306,569
187,58	762,653
187,79	-848,168
188,01	-1357,020
188,23	91,406
188,45	236,651
188,66	-169,567
188,88	202,931
189,10	-357,214
189,31	-152,003
189,53	-212,578
189,75	1122,425
189,97	152,081
190,18	975,834
190,40	1491,599
190,62	397,868
190,83	472,142
191,05	-240,047
191,27	8181,898
191,49	535,638
191,70	709,599
191,92	573,304
192,14	332,973
192,35	-1919,640
192,57	-799,741
192,79	-2344,156
193,01	517,152
193,22	-482,401
193,44	-498,570
193,66	434,979
193,87	862,496
194,09	162,592
194,31	153,943
194,53	-522,626
194,74	408,845
194,96	303,542
195,18	900,852
195,39	-1290,492
195,61	-312,812
195,83	2164,398
196,04	488,821
196,26	159,794
196,48	1884,475
196,70	626,870
196,91	209,117
197,13	-275,206
197,35	234,534
197,56	-488,833
197,78	4924,360
198,00	300,772
198,21	233,879
198,43	898,474
198,65	249,070
198,86	154,562
199,08	864,043
199,30	330,019
199,51	1557,758
199,73	-4087,060
199,95	226,579
200,16	751,893
200,38	161,305
200,60	4184,251
200,81	-847,379
201,03	9270,335
201,25	640,370
201,46	-779,474
201,68	446,821
201,90	410,467
202,11	451,248
202,33	113,263
202,55	211,951
202,76	791,599
202,98	881,990
203,20	190,213
203,41	-1188,879
203,63	523,265
203,85	191,396
204,06	-610,930
204,28	166,699
204,50	-309,160
204,71	460,346
204,93	284,043
205,15	202,344
205,36	-174,023
205,58	1728,471
205,80	-2144,192
206,01	-4249,511
206,23	199,012
206,45	363,585
206,66	359,617
206,88	-445,435
207,10	1949,970
207,31	-46327,815
207,53	137,207
207,75	236,291
207,96	403,693
208,18	382,889
208,39	254,140
208,61	648,805
208,83	7627,018
209,04	435,287
209,26	332,590
209,48	103,357
209,69	-83,725
209,91	1126,738
210,13	23,020
210,34	158,766
210,56	303,627
210,77	1760,041
210,99	313,971
211,21	-256,899
211,42	166,518
211,64	467,374
211,86	295,204
212,07	189,117
212,29	656,690
212,50	1222,232
212,72	191,403
212,94	213,987
213,15	152,322
213,37	681,421
213,58	155,033
213,80	443,499
214,02	2973,732
214,23	246,167
214,45	256,189
214,67	47,682
214,88	-6,636
215,10	1746,784
215,31	1698,062
215,53	145,923
215,75	279,196
215,96	575,584
216,18	136,017
216,39	285,297
216,61	390,826
216,83	993,868
217,04	490,818
217,26	53,934
217,47	564,044
217,69	350,066
217,91	95,974
218,12	1433,310
218,34	106,965
218,55	241,157
218,77	93,395
218,99	148,144
219,20	218,979
219,42	461,194
219,63	81,678
219,85	344,561
220,06	-235,648
220,28	156,481
220,50	38,766
220,71	108,172
220,93	578,323
221,14	413,798
221,36	62,212
221,58	114,215
221,79	41,590
222,01	189,117
222,22	183,861
222,44	35,251
222,65	258,161
222,87	-64,381
223,09	86,250
223,30	138,360
223,52	372,596
223,73	115,935
223,95	67,051
224,16	73,767
224,38	140,911
224,60	58,958
224,81	49,532
225,03	102,958
225,24	50,695
225,46	16,520
225,67	14,843
225,89	34,481
226,10	124,494
226,32	165,991
226,54	8,474
226,75	-1,423
226,97	93,441
227,18	129,133
227,40	73,401
227,61	45,994
227,83	42,152
228,04	110,927
228,26	60,665
228,47	28,468
228,69	107,210
228,91	38,097
229,12	123,955
229,34	39,457
229,55	52,470
229,77	50,423
229,98	20,427
230,20	41,032
230,41	-10,719
230,63	70,431
230,84	40,766
231,06	57,549
231,27	-8,590
231,49	49,679
231,71	34,996
231,92	8,765
232,14	-5,279
232,35	43,479
232,57	-6,852
232,78	30,415
233,00	26,801
233,21	24,230
233,43	17,420
233,64	2,804
233,86	21,136
234,07	39,294
234,29	5,182
234,50	18,733
234,72	29,633
234,93	17,178
235,15	7,950
235,36	18,815
235,58	54,148
235,79	33,217
236,01	13,381
236,22	26,500
236,44	36,637
236,65	12,594
236,87	21,572
237,08	9,385
237,30	-2,178
237,51	18,694
237,73	16,114
237,94	12,931
238,16	19,986
238,37	6,140
238,59	0,190
238,80	10,711
239,02	9,599
239,23	24,285
239,45	16,480
239,66	24,349
239,88	25,697
240,09	18,772
240,31	5,593
240,52	4,449
240,74	16,292
240,95	12,846
241,17	17,412
241,38	10,956
241,60	-1,899
241,81	19,071
242,03	1,650
242,24	11,053
242,46	12,007
242,67	-5,134
242,89	14,143
243,10	10,592
243,32	20,153
243,53	13,076
243,75	7,193
243,96	11,428
244,18	5,287
244,39	15,129
244,60	0,386
244,82	4,672
245,03	18,789
245,25	12,712
245,46	23,130
245,68	2,808
245,89	28,606
246,11	21,242
246,32	8,466
246,54	11,458
246,75	5,778
246,97	15,072
247,18	21,289
247,39	4,394
247,61	12,339
247,82	12,274
248,04	2,287
248,25	0,918
248,47	7,223
248,68	10,215
248,90	9,396
249,11	12,146
249,33	14,615
249,54	13,045
249,75	10,812
249,97	0,375
250,18	18,465
250,40	12,496
250,61	6,681
250,83	2,355
251,04	7,423
251,25	12,438
251,47	10,816
251,68	7,708
251,90	8,274
252,11	7,893
252,33	7,396
252,54	6,400
252,76	1,225
252,97	-0,359
253,18	5,851
253,40	8,108
253,61	4,509
253,83	8,610
254,04	10,407
254,25	2,441
254,47	1,187
254,68	8,611
254,90	6,380
255,11	5,052
255,33	9,671
255,54	6,250
255,75	4,548
255,97	6,292
256,18	6,505
256,40	7,102
256,61	7,947
256,82	4,532
257,04	9,599
257,25	6,399
257,47	7,841
257,68	9,967
257,89	7,589
258,11	4,350
258,32	11,077
258,54	3,708
258,75	14,291
258,96	8,239
259,18	6,458
259,39	3,133
259,61	9,449
259,82	1,845
260,03	2,687
260,25	7,866
260,46	5,795
260,68	4,471
260,89	5,789
261,10	7,047
261,32	5,717
261,53	0,102
261,75	8,669
261,96	4,821
262,17	20,403
262,39	7,580
262,60	0,321
262,81	3,287
263,03	12,112
263,24	7,332
263,46	3,389
263,67	6,305
263,88	8,709
264,10	5,973
264,31	5,421
264,52	3,655
264,74	9,026
264,95	5,401
265,17	9,518
265,38	8,215
265,59	10,644
265,81	9,936
266,02	2,584
266,23	1,220
266,45	11,890
266,66	9,499
266,87	5,842
267,09	4,674
267,30	8,239
267,52	12,844
267,73	8,328
267,94	3,094
268,16	7,634
268,37	1,013
268,58	6,510
268,80	1,266
269,01	8,036
269,22	7,836
269,44	8,587
269,65	7,180
269,86	-0,953
270,08	5,607
270,29	4,185
270,50	4,880
270,72	8,126
270,93	2,171
271,14	4,120
271,36	1,618
271,57	6,678
271,78	5,372
272,00	3,532
272,21	8,171
272,42	5,348
272,64	10,533
272,85	1,569
273,06	1,861
273,28	6,941
273,49	1,496
273,70	4,884
273,92	6,778
274,13	4,069
274,34	-0,035
274,56	8,285
274,77	5,198
274,98	12,843
275,20	10,759
275,41	7,939
275,62	1,258
275,84	4,561
276,05	14,434
276,26	3,483
276,47	3,797
276,69	9,816
276,90	9,923
277,11	6,709
277,33	3,483
277,54	8,226
277,75	5,948
277,97	0,746
278,18	0,454
278,39	10,798
278,61	1,913
278,82	11,293
279,03	7,238
279,24	5,308
279,46	5,927
279,67	12,445
279,88	4,861
280,10	9,540
280,31	4,325
280,52	4,818
280,73	2,860
280,95	8,063
281,16	5,231
281,37	3,226
281,59	5,515
281,80	7,226
282,01	0,776
282,22	1,832
282,44	5,443
282,65	11,124
282,86	6,545
283,08	2,498
283,29	5,174
283,50	1,600
283,71	4,955
283,93	4,797
284,14	0,690
284,35	3,498
284,56	5,499
284,78	0,982
284,99	6,950
285,20	10,568
285,42	4,744
285,63	2,791
285,84	2,928
286,05	4,308
286,27	3,012
286,48	9,625
286,69	9,411
286,90	3,656
287,12	3,576
287,33	3,441
287,54	2,631
287,75	9,486
287,97	4,928
288,18	3,472
288,39	5,028
288,60	4,120
288,82	4,034
289,03	3,719
289,24	7,345
289,45	8,586
289,67	6,061
289,88	4,692
290,09	9,362
290,30	4,058
290,52	3,743
290,73	-0,121
290,94	3,329
291,15	3,945
291,37	6,390
291,58	3,802
291,79	6,021
292,00	4,252
292,21	4,785
292,43	5,995
292,64	-0,194
292,85	6,050
293,06	6,849
293,28	2,770
293,49	2,657
293,70	8,721
293,91	1,005
294,12	2,931
294,34	2,480
294,55	7,805
294,76	5,420
294,97	8,977
295,19	4,543
295,40	6,299
295,61	6,098
295,82	6,265
296,03	4,943
296,25	5,776
296,46	2,508
296,67	2,810
296,88	6,378
297,09	3,120
297,31	3,050
297,52	6,865
297,73	3,256
297,94	4,740
298,15	7,466
298,37	3,915
298,58	1,465
298,79	5,421
299,00	-0,128
299,21	4,155
299,43	1,945
299,64	8,842
299,85	3,166
300,06	1,740
300,27	2,017
300,49	8,129
300,70	6,468
300,91	2,021
301,12	3,548
301,33	6,600
301,54	2,181
301,76	6,266
301,97	4,333
302,18	6,356
302,39	7,691
302,60	4,289
302,82	4,706
303,03	9,126
303,24	3,957
303,45	5,902
303,66	6,016
303,87	0,978
304,09	6,568
304,30	2,363
304,51	4,513
304,72	2,362
304,93	5,047
305,14	4,238
305,36	3,712
305,57	1,361
305,78	7,158
305,99	4,073
306,20	4,503
306,41	1,768
306,62	1,821
306,84	2,787
307,05	5,848
307,26	2,530
307,47	9,077
307,68	4,134
307,89	4,620
308,11	5,449
308,32	3,636
308,53	2,716
308,74	3,802
308,95	2,643
309,16	9,004
309,37	4,865
309,59	1,576
309,80	4,153
310,01	5,398
310,22	3,462
310,43	7,357
310,64	7,350
310,85	5,212
311,06	2,423
311,28	3,335
311,49	5,439
311,70	7,751
311,91	3,812
312,12	3,014
312,33	2,653
312,54	5,484
312,75	7,985
312,97	3,886
313,18	9,616
313,39	1,682
313,60	4,142
313,81	5,259
314,02	5,261
314,23	5,843
314,44	4,261
314,65	3,119
314,87	2,144
315,08	3,697
315,29	2,839
315,50	5,826
315,71	10,783
315,92	8,045
316,13	1,129
316,34	4,508
316,55	7,195
316,77	1,872
316,98	2,420
317,19	2,725
317,40	5,326
317,61	7,815
317,82	6,175
318,03	0,686
318,24	5,426
318,45	7,324
318,66	5,311
318,87	0,761
319,09	5,217
319,30	6,200
319,51	6,682
319,72	6,445
319,93	3,543
320,14	7,016
320,35	6,334
320,56	2,099
320,77	3,515
320,98	8,363
321,19	7,236
321,40	5,673
321,62	5,940
321,83	0,197
322,04	5,660
322,25	5,330
322,46	10,448
322,67	6,341
322,88	8,795
323,09	4,173
323,30	8,273
323,51	9,514
323,72	4,131
323,93	1,664
324,14	2,159
324,35	-0,729
324,56	1,483
324,77	4,187
324,99	4,897
325,20	3,914
325,41	4,461
325,62	4,307
325,83	-0,776
326,04	2,987
326,25	3,980
326,46	1,730
326,67	2,596
326,88	4,398
327,09	1,711
327,30	5,223
327,51	4,495
327,72	4,654
327,93	4,659
328,14	4,268
328,35	4,600
328,56	2,930
328,77	7,511
328,98	5,623
329,19	3,731
329,40	5,704
329,61	1,414
329,82	0,744
330,04	7,818
330,25	3,689
330,46	6,284
330,67	3,491
330,88	6,083
331,09	3,227
331,30	3,620
331,51	7,038
331,72	5,665
331,93	5,556
332,14	2,517
332,35	3,753
332,56	3,960
332,77	8,670
332,98	3,549
333,19	3,465
333,40	4,907
333,61	2,654
333,82	5,426
334,03	3,189
334,24	11,810
334,45	4,808
334,66	5,711
334,87	3,308
335,08	3,238
335,29	3,379
335,50	5,422
335,71	1,940
335,92	6,284
336,13	5,636
336,34	2,318
336,55	4,074
336,76	4,731
336,97	3,913
337,18	2,829
337,39	6,443
337,60	4,998
337,81	6,301
338,02	5,008
338,23	3,907
338,44	4,304
338,65	1,758
338,86	5,325
339,07	4,460
339,28	3,393
339,49	3,152
339,70	1,161
339,91	1,490
340,11	7,730
340,32	3,681
340,53	2,707
340,74	-0,105
340,95	1,942
341,16	5,264
341,37	5,009
341,58	4,715
341,79	3,284
342,00	1,625
342,21	-1,893
342,42	4,182
342,63	6,752
342,84	5,258
343,05	4,057
343,26	8,318
343,47	5,647
343,68	2,444
343,89	1,132
344,10	2,316
344,31	4,658
344,52	5,213
344,73	2,176
344,94	0,225
345,14	5,285
345,35	3,674
345,56	0,491
345,77	0,716
345,98	1,321
346,19	5,360
346,40	7,135
346,61	2,266
346,82	5,738
347,03	7,567
347,24	2,368
347,45	4,349
347,66	7,891
347,87	3,142
348,08	7,983
348,28	2,929
348,49	2,904
348,70	5,989
348,91	4,125
349,12	3,490
349,33	-0,588
349,54	5,761
349,75	6,036
349,96	3,074
350,17	6,002
350,38	0,885
350,59	4,559
350,80	2,836
351,00	2,740
351,21	12,200
351,42	1,912
351,63	2,415
351,84	6,283
352,05	7,961
352,26	4,884
352,47	7,118
352,68	6,145
352,89	4,406
353,09	2,323
353,30	1,854
353,51	1,968
353,72	10,003
353,93	9,819
354,14	2,946
354,35	5,577
354,56	5,327
354,77	3,899
354,98	1,880
355,18	5,712
355,39	10,357
355,60	2,437
355,81	7,266
356,02	2,576
356,23	1,702
356,44	7,012
356,65	3,202
356,85	7,949
357,06	8,234
357,27	4,451
357,48	0,894
357,69	10,450
357,90	4,830
358,11	-1,236
358,32	2,412
358,52	7,578
358,73	1,990
358,94	3,523
359,15	4,243
359,36	7,252
359,57	4,053
359,78	8,703
359,98	7,628
360,19	-0,598
360,40	3,189
360,61	6,422
360,82	3,379
361,03	11,359
361,24	14,383
361,44	2,198
361,65	5,339
361,86	2,605
362,07	6,330
362,28	10,137
362,49	4,229
362,70	6,667
362,90	2,948
363,11	3,570
363,32	3,191
363,53	3,402
363,74	9,153
363,95	9,083
364,15	3,623
364,36	7,869
364,57	3,890
364,78	1,865
364,99	2,394
365,20	6,576
365,40	8,491
365,61	5,245
365,82	5,430
366,03	9,929
366,24	3,607
366,45	0,411
366,65	2,023
366,86	5,012
367,07	4,512
367,28	-0,070
367,49	2,386
367,69	5,505
367,90	3,626
368,11	4,113
368,32	3,502
368,53	8,907
368,73	4,129
368,94	3,581
369,15	8,287
369,36	6,617
369,57	4,088
369,78	4,675
369,98	5,342
370,19	8,166
370,40	1,720
370,61	4,645
370,82	6,340
371,02	8,637
371,23	4,448
371,44	3,353
371,65	3,115
371,85	8,405
372,06	1,567
372,27	3,708
372,48	2,831
372,69	8,310
372,89	4,447
373,10	5,922
373,31	5,565
373,52	5,081
373,73	6,975
373,93	6,143
374,14	3,462
374,35	3,395
374,56	4,691
374,76	6,393
374,97	4,396
375,18	9,518
375,39	5,027
375,60	6,561
375,80	5,052
376,01	0,768
376,22	6,947
376,43	5,455
376,63	4,422
376,84	6,348
377,05	5,396
377,26	3,524
377,46	4,196
377,67	2,851
377,88	0,351
378,09	5,630
378,29	4,456
378,50	3,891
378,71	4,948
378,92	1,157
379,12	2,438
379,33	4,029
379,54	5,329
379,75	8,413
379,95	4,904
380,16	5,478
380,37	5,908
380,58	0,581
380,78	8,414
380,99	1,188
381,20	3,816
381,41	7,667
381,61	4,581
381,82	5,469
382,03	6,425
382,24	7,984
382,44	4,425
382,65	8,024
382,86	8,546
383,06	8,025
383,27	1,739
383,48	6,168
383,69	6,394
383,89	2,513
384,10	3,061
384,31	6,648
384,51	8,122
384,72	6,367
384,93	4,102
385,14	0,780
385,34	2,374
385,55	3,545
385,76	0,160
385,96	9,231
386,17	5,349
386,38	3,825
386,59	9,747
386,79	5,862
387,00	10,582
387,21	8,531
387,41	4,517
387,62	4,993
387,83	7,340
388,03	3,699
388,24	6,858
388,45	5,032
388,66	6,611
388,86	3,472
389,07	1,676
389,28	12,984
389,48	4,671
389,69	3,931
389,90	0,758
390,10	1,627
390,31	7,457
390,52	3,988
390,72	3,576
390,93	5,504
391,14	5,967
391,34	6,179
391,55	4,102
391,76	9,648
391,96	9,089
392,17	2,922
392,38	5,875
392,58	6,714
392,79	3,261
393,00	2,627
393,20	4,787
393,41	3,431
393,62	8,647
393,82	2,097
394,03	6,960
394,24	2,769
394,44	6,503
394,65	8,589
394,86	3,861
395,06	7,062
395,27	4,881
395,48	6,433
395,68	0,915
395,89	4,496
396,10	8,108
396,30	2,734
396,51	1,821
396,72	5,267
396,92	1,673
397,13	6,712
397,34	0,510
397,54	7,108
397,75	4,751
397,95	1,975
398,16	4,227
398,37	5,469
398,57	-0,856
398,78	2,238
398,99	5,447
399,19	6,559
399,40	12,998
399,60	4,267
399,81	6,034
400,02	11,441
400,22	5,494
400,43	8,305
400,64	2,627
400,84	-0,602
401,05	5,849
401,25	4,616
401,46	3,859
401,67	5,161
401,87	3,717
402,08	1,148
402,29	2,662
402,49	9,435
402,70	5,915
402,90	0,681
403,11	4,551
403,32	0,534
403,52	-0,492
403,73	0,818
403,93	7,942
404,14	12,653
404,35	3,228
404,55	-1,019
404,76	5,363
404,96	5,133
405,17	7,579
405,38	9,139
405,58	4,224
405,79	8,088
405,99	7,802
406,20	3,495
406,40	4,703
406,61	5,323
406,82	4,757
407,02	5,493
407,23	0,850
407,43	4,769
407,64	-0,213
407,85	3,103
408,05	0,422
408,26	12,161
408,46	10,149
408,67	4,654
408,87	5,875
409,08	0,727
409,29	11,387
409,49	8,521
409,70	3,452
409,90	4,676
410,11	6,634
410,31	9,421
410,52	3,704
410,72	2,787
410,93	5,997
411,14	3,988
411,34	-0,873
411,55	2,804
411,75	6,662
411,96	7,139
412,16	4,609
412,37	2,608
412,57	8,925
412,78	7,019
412,99	3,577
413,19	5,704
413,40	2,277
413,60	1,972
413,81	2,971
414,01	3,150
414,22	4,490
414,42	1,885
414,63	1,258
414,83	2,348
415,04	7,354
415,24	3,839
415,45	3,172
415,65	6,151
415,86	8,992
416,07	1,324
416,27	7,197
416,48	7,546
416,68	11,012
416,89	1,278
417,09	5,762
417,30	11,477
417,50	0,044
417,71	7,123
417,91	5,459
418,12	4,904
418,32	5,303
418,53	1,365
418,73	3,087
418,94	3,377
419,14	8,437
419,35	1,919
419,55	3,826
419,76	6,874
419,96	8,314
420,17	0,792
420,37	2,216
420,58	7,814
420,78	6,000
420,99	1,670
421,19	6,965
421,40	10,914
421,60	8,324
421,81	1,942
422,01	5,615
422,22	6,256
422,42	5,560
422,63	6,347
422,83	6,101
423,04	11,992
423,24	12,826
423,45	2,461
423,65	3,631
423,86	10,741
424,06	7,897
424,27	2,971
424,47	5,208
424,67	1,521
424,88	4,105
425,08	5,914
425,29	8,026
425,49	-0,653
425,70	3,916
425,90	4,975
426,11	5,759
426,31	6,736
426,52	6,934
426,72	3,588
426,93	0,478
427,13	7,693
427,33	2,387
427,54	6,233
427,74	6,948
427,95	9,295
428,15	2,545
428,36	1,697
428,56	2,942
428,77	7,190
428,97	5,860
429,18	3,023
429,38	1,347
429,58	3,800
429,79	6,829
429,99	2,306
430,20	5,754
430,40	8,357
430,61	2,736
430,81	2,838
431,01	7,606
431,22	8,866
431,42	7,893
431,63	-1,363
431,83	5,820
432,04	7,340
432,24	8,683
432,44	7,028
432,65	4,606
432,85	6,748
433,06	7,708
433,26	3,583
433,47	5,749
433,67	3,718
433,87	4,914
434,08	4,656
434,28	4,351
434,49	5,581
434,69	13,950
434,89	5,529
435,10	3,986
435,30	8,517
435,51	5,604
435,71	3,268
435,91	3,229
436,12	0,855
436,32	4,530
436,53	4,652
436,73	4,103
436,93	6,594
437,14	4,377
437,34	5,566
437,55	2,394
437,75	10,344
437,95	9,463
438,16	1,868
438,36	5,117
438,57	7,165
438,77	2,466
438,97	7,642
439,18	8,578
439,38	5,688
439,58	1,773
439,79	4,874
439,99	1,531
440,20	9,339
440,40	10,015
440,60	4,756
440,81	3,910
441,01	5,902
441,21	7,537
441,42	5,490
441,62	7,728
441,83	6,157
442,03	3,570
442,23	7,244
442,44	4,578
442,64	6,910
442,84	2,999
443,05	6,263
443,25	1,146
443,45	6,830
443,66	6,171
443,86	3,528
444,06	6,983
444,27	4,642
444,47	11,122
444,67	9,143
444,88	6,863
445,08	6,369
445,28	6,170
445,49	6,660
445,69	8,678
445,90	8,114
446,10	11,319
446,30	5,214
446,51	5,819
446,71	9,109
446,91	9,343
447,12	15,331
447,32	2,851
447,52	5,808
447,72	10,534
447,93	4,957
448,13	2,860
448,33	12,480
448,54	11,053
448,74	3,499
448,94	4,154
449,15	12,305
449,35	4,716
449,55	10,616
449,76	5,990
449,96	5,946
450,16	8,225
450,37	7,272
450,57	9,043
450,77	4,849
450,98	7,856
451,18	8,015
451,38	10,457
451,58	11,891
451,79	3,689
451,99	6,002
452,19	9,469
452,40	16,986
452,60	3,511
452,80	10,242
453,00	8,379
453,21	2,660
453,41	10,624
453,61	4,817
453,82	9,266
454,02	4,476
454,22	19,871
454,42	10,298
454,63	6,710
454,83	4,957
455,03	11,827
455,24	7,395
455,44	8,518
455,64	5,422
455,84	6,943
456,05	4,527
456,25	2,185
456,45	4,753
456,65	4,192
456,86	10,015
457,06	7,022
457,26	8,392
457,47	12,721
457,67	7,879
457,87	3,644
458,07	8,875
458,28	11,257
458,48	14,458
458,68	2,903
458,88	14,220
459,09	7,387
459,29	16,015
459,49	4,390
459,69	10,222
459,90	8,815
460,10	9,126
460,30	13,343
460,50	6,709
460,71	10,925
460,91	4,550
461,11	11,737
461,31	8,571
461,52	10,781
461,72	7,344
461,92	6,039
462,12	16,328
462,32	7,017
462,53	7,396
462,73	6,924
462,93	8,891
463,13	12,017
463,34	9,995
463,54	12,318
463,74	9,718
463,94	8,936
464,14	14,025
464,35	6,338
464,55	12,540
464,75	17,666
464,95	10,483
465,16	6,585
465,36	14,643
465,56	5,980
465,76	7,384
465,96	9,911
466,17	12,121
466,37	7,492
466,57	15,026
466,77	13,211
466,97	7,738
467,18	16,894
467,38	11,512
467,58	17,977
467,78	16,583
467,98	13,105
468,19	9,656
468,39	13,888
468,59	7,556
468,79	11,920
468,99	12,815
469,19	9,688
469,40	8,812
469,60	9,649
469,80	10,500
470,00	12,110
470,20	13,845
470,41	10,479
470,61	14,776
470,81	15,216
471,01	13,263
471,21	13,856
471,41	14,885
471,62	11,490
471,82	9,704
472,02	11,836
472,22	12,289
472,42	10,729
472,62	15,401
472,83	9,567
473,03	15,803
473,23	13,319
473,43	15,822
473,63	13,715
473,83	15,099
474,03	13,987
474,24	16,463
474,44	13,156
474,64	12,646
474,84	10,859
475,04	11,088
475,24	18,472
475,45	11,466
475,65	14,083
475,85	17,953
476,05	9,934
476,25	11,333
476,45	16,390
476,65	19,343
476,85	11,771
477,06	13,672
477,26	11,115
477,46	11,438
477,66	17,184
477,86	16,077
478,06	14,892
478,26	22,192
478,46	12,229
478,67	17,856
478,87	13,131
479,07	14,826
479,27	16,498
479,47	12,784
479,67	8,314
479,87	13,114
480,07	20,284
480,28	15,062
480,48	12,822
480,68	17,459
480,88	22,457
481,08	19,303
481,28	18,437
481,48	16,378
481,68	14,511
481,88	12,738
482,08	16,096
482,29	19,303
482,49	11,720
482,69	16,010
482,89	15,686
483,09	22,520
483,29	14,119
483,49	11,511
483,69	16,551
483,89	17,359
484,09	14,867
484,29	14,402
484,50	17,132
484,70	18,628
484,90	15,791
485,10	19,304
485,30	21,280
485,50	23,618
485,70	19,633
485,90	14,467
486,10	14,000
486,30	14,314
486,50	17,729
486,70	14,198
486,90	17,215
487,10	18,482
487,30	18,441
487,51	17,037
487,71	15,699
487,91	19,073
488,11	21,930
488,31	17,775
488,51	18,138
488,71	16,758
488,91	17,680
489,11	17,183
489,31	16,759
489,51	19,682
489,71	18,894
489,91	19,845
490,11	20,315
490,31	21,996
490,51	21,177
490,71	21,195
490,91	17,498
491,11	20,025
491,31	20,254
491,51	19,137
491,72	19,543
491,92	19,003
492,12	23,640
492,32	20,007
492,52	21,199
492,72	16,302
492,92	19,650
493,12	21,239
493,32	19,075
493,52	17,713
493,72	20,689
493,92	21,859
494,12	19,292
494,32	23,028
494,52	21,878
494,72	19,699
494,92	19,457
495,12	23,670
495,32	24,887
495,52	20,548
495,72	20,477
495,92	20,820
496,12	23,003
496,32	21,122
496,52	19,792
496,72	23,777
496,92	22,124
497,12	23,343
497,32	22,766
497,52	22,809
497,72	22,511
497,92	22,693
498,12	21,781
498,32	21,268
498,52	20,711
498,72	19,980
498,92	20,132
499,12	23,311
499,32	19,029
499,52	24,818
499,72	21,239
499,92	25,128
500,12	23,824
500,32	22,599
500,52	24,003
500,72	26,397
500,91	25,951
501,11	21,694
501,31	22,050
501,51	24,818
501,71	24,674
501,91	22,639
502,11	20,359
502,31	24,377
502,51	24,416
502,71	24,471
502,91	19,560
503,11	23,071
503,31	24,990
503,51	20,710
503,71	23,128
503,91	23,410
504,11	22,984
504,31	24,133
504,51	23,304
504,71	28,050
504,91	21,185
505,10	24,958
505,30	23,894
505,50	24,527
505,70	22,700
505,90	24,052
506,10	23,532
506,30	24,620
506,50	25,064
506,70	24,784
506,90	23,467
507,10	22,279
507,30	22,341
507,50	23,899
507,70	26,381
507,89	25,802
508,09	24,291
508,29	22,225
508,49	20,726
508,69	24,549
508,89	24,026
509,09	23,964
509,29	24,377
509,49	26,437
509,69	27,731
509,89	26,864
510,09	24,809
510,28	25,784
510,48	25,227
510,68	24,441
510,88	24,894
511,08	27,473
511,28	25,395
511,48	24,650
511,68	21,198
511,88	30,449
512,07	25,263
512,27	25,405
512,47	25,449
512,67	23,920
512,87	22,586
513,07	26,330
513,27	22,307
513,47	23,942
513,67	22,370
513,86	25,607
514,06	28,056
514,26	25,411
514,46	27,241
514,66	23,944
514,86	26,372
515,06	30,859
515,26	26,985
515,45	24,774
515,65	24,577
515,85	25,907
516,05	23,957
516,25	23,499
516,45	26,270
516,65	24,269
516,84	25,819
517,04	29,254
517,24	25,588
517,44	27,860
517,64	26,524
517,84	28,896
518,04	28,092
518,23	27,539
518,43	29,644
518,63	24,542
518,83	23,209
519,03	26,796
519,23	25,212
519,42	28,338
519,62	29,121
519,82	26,146
520,02	25,111
520,22	27,953
520,42	25,835
520,61	27,294
520,81	27,319
521,01	30,294
521,21	23,693
521,41	25,195
521,61	32,017
521,80	26,310
522,00	25,331
522,20	32,507
522,40	28,869
522,60	26,478
522,79	27,485
522,99	30,905
523,19	23,785
523,39	27,973
523,59	27,535
523,78	27,433
523,98	26,046
524,18	28,925
524,38	24,549
524,58	25,621
524,77	29,131
524,97	28,769
525,17	27,361
525,37	28,447
525,57	32,443
525,76	28,587
525,96	30,209
526,16	25,233
526,36	25,485
526,56	27,367
526,75	28,355
526,95	29,851
527,15	24,771
527,35	28,544
527,55	25,981
527,74	25,186
527,94	26,639
528,14	25,968
528,34	26,170
528,53	25,479
528,73	30,970
528,93	29,453
529,13	27,013
529,32	28,401
529,52	26,674
529,72	28,127
529,92	27,395
530,12	26,669
530,31	28,336
530,51	30,397
530,71	27,115
530,91	32,270
531,10	23,718
531,30	30,250
531,50	24,261
531,70	28,488
531,89	29,582
532,09	27,433
532,29	25,398
532,49	27,937
532,68	27,872
532,88	25,566
533,08	26,237
533,28	29,571
533,47	28,019
533,67	29,066
533,87	26,329
534,06	32,817
534,26	26,352
534,46	27,891
534,66	29,280
534,85	28,273
535,05	24,953
535,25	26,407
535,45	27,071
535,64	30,521
535,84	29,518
536,04	25,184
536,23	30,390
536,43	31,389
536,63	28,483
536,83	29,557
537,02	28,197
537,22	25,961
537,42	29,186
537,61	29,679
537,81	28,081
538,01	31,037
538,20	30,658
538,40	28,089
538,60	28,999
538,80	29,698
538,99	29,511
539,19	29,372
539,39	29,329
539,58	31,226
539,78	29,555
539,98	30,610
540,17	30,734
540,37	36,016
540,57	30,538
540,76	32,056
540,96	30,680
541,16	32,680
541,36	31,254
541,55	30,922
541,75	30,745
541,95	34,813
542,14	32,202
542,34	29,533
542,54	28,998
542,73	34,839
542,93	31,960
543,13	33,306
543,32	31,072
543,52	35,830
543,72	31,910
543,91	32,994
544,11	32,078
544,31	27,386
544,50	30,546
544,70	34,120
544,89	34,002
545,09	35,141
545,29	31,885
545,48	34,063
545,68	28,907
545,88	32,285
546,07	27,413
546,27	29,995
546,47	31,099
546,66	31,098
546,86	28,213
547,06	30,568
547,25	29,427
547,45	27,894
547,64	30,209
547,84	32,956
548,04	30,272
548,23	33,322
548,43	32,066
548,63	29,703
548,82	29,588
549,02	31,533
549,21	28,109
549,41	28,478
549,61	29,504
549,80	26,313
550,00	31,245
550,20	27,571
550,39	30,656
550,59	29,978
550,78	31,398
550,98	28,056
551,18	30,266
551,37	28,113
551,57	29,026
551,76	29,647
551,96	28,365
552,16	27,620
552,35	29,638
552,55	27,148
552,74	29,444
552,94	31,024
553,14	25,968
553,33	30,867
553,53	28,395
553,72	28,823
553,92	31,771
554,12	26,336
554,31	30,429
554,51	27,262
554,70	26,725
554,90	27,309
555,09	31,280
555,29	28,390
555,49	29,776
555,68	31,317
555,88	26,542
556,07	26,663
556,27	32,322
556,46	28,561
556,66	26,105
556,86	31,979
557,05	28,614
557,25	25,462
557,44	26,964
557,64	27,242
557,83	28,795
558,03	28,153
558,22	25,458
558,42	27,517
558,62	28,882
558,81	31,607
559,01	28,272
559,20	29,531
559,40	26,483
559,59	27,804
559,79	26,300
559,98	27,712
560,18	29,626
560,37	28,113
560,57	28,395
560,76	27,123
560,96	25,675
561,16	27,997
561,35	24,846
561,55	29,544
561,74	28,613
561,94	30,015
562,13	29,408
562,33	28,335
562,52	29,085
562,72	26,940
562,91	27,151
563,11	27,695
563,30	28,208
563,50	26,895
563,69	26,919
563,89	26,952
564,08	27,793
564,28	26,983
564,47	28,196
564,67	27,264
564,86	25,446
565,06	26,961
565,25	26,020
565,45	27,271
565,64	30,702
565,84	27,370
566,03	24,188
566,23	28,081
566,42	28,394
566,62	26,454
566,81	25,656
567,01	25,937
567,20	27,380
567,40	27,445
567,59	25,909
567,79	31,408
567,98	29,913
568,18	26,542
568,37	28,889
568,57	27,949
568,76	28,441
568,96	28,558
569,15	25,007
569,35	28,494
569,54	30,966
569,73	29,429
569,93	27,167
570,12	26,060
570,32	30,585
570,51	27,518
570,71	28,371
570,90	29,272
571,10	27,168
571,29	27,207
571,49	25,492
571,68	28,913
571,87	29,048
572,07	28,587
572,26	24,784
572,46	27,702
572,65	26,975
572,85	26,473
573,04	28,511
573,24	26,663
573,43	27,546
573,62	28,435
573,82	27,835
574,01	29,123
574,21	25,480
574,40	26,764
574,60	24,923
574,79	30,843
574,98	27,280
575,18	26,980
575,37	26,015
575,57	27,555
575,76	28,009
575,96	27,477
576,15	27,419
576,34	26,719
576,54	28,327
576,73	28,020
576,93	27,022
577,12	27,425
577,31	28,212
577,51	26,692
577,70	28,128
577,90	27,789
578,09	28,002
578,28	27,042
578,48	27,034
578,67	27,271
578,87	28,693
579,06	27,454
579,25	28,836
579,45	29,092
579,64	26,269
579,84	25,518
580,03	28,885
580,22	29,027
580,42	27,703
580,61	27,794
580,81	28,358
581,00	27,039
581,19	29,372
581,39	27,000
581,58	27,388
581,77	26,475
581,97	30,925
582,16	27,253
582,35	26,992
582,55	27,458
582,74	29,484
582,94	29,632
583,13	26,782
583,32	28,132
583,52	29,839
583,71	28,226
583,90	27,755
584,10	29,359
584,29	29,150
584,48	26,360
584,68	27,167
584,87	30,690
585,06	28,114
585,26	26,772
585,45	26,932
585,65	29,564
585,84	27,383
586,03	27,382
586,23	27,258
586,42	26,238
586,61	31,374
586,81	28,340
587,00	26,908
587,19	28,340
587,39	29,937
587,58	29,314
587,77	28,567
587,97	26,599
588,16	28,504
588,35	27,213
588,54	27,622
588,74	28,621
588,93	30,106
589,12	27,932
589,32	25,803
589,51	27,294
589,70	26,735
589,90	25,096
590,09	25,358
590,28	30,229
590,48	26,676
590,67	27,844
590,86	27,750
591,06	27,598
591,25	28,343
591,44	27,701
591,63	27,380
591,83	27,753
592,02	28,398
592,21	26,995
592,41	28,097
592,60	28,898
592,79	28,687
592,98	27,940
593,18	26,155
593,37	26,466
593,56	28,653
593,76	28,141
593,95	26,925
594,14	27,023
594,33	28,999
594,53	29,089
594,72	26,497
594,91	27,929
595,10	26,815
595,30	27,008
595,49	27,144
595,68	29,354
595,88	29,867
596,07	28,320
596,26	27,877
596,45	27,010
596,65	25,685
596,84	26,256
597,03	30,038
597,22	25,560
597,42	28,470
597,61	25,910
597,80	29,215
597,99	26,337
598,19	28,719
598,38	26,634
598,57	27,096
598,76	30,698
598,95	28,009
599,15	29,387
599,34	26,729
599,53	25,467
599,72	26,505
599,92	29,678
600,11	28,825
600,30	28,189
600,49	30,739
600,69	28,257
600,88	27,719
601,07	26,959
601,26	25,461
601,45	26,801
601,65	26,690
601,84	27,637
602,03	27,014
602,22	27,077
602,42	29,306
602,61	26,087
602,80	27,852
602,99	26,754
603,18	27,051
603,38	29,995
603,57	26,961
603,76	26,122
603,95	26,581
604,14	28,594
604,34	25,580
604,53	26,249
604,72	27,289
604,91	28,368
605,10	28,668
605,29	29,390
605,49	25,718
605,68	27,965
605,87	32,046
606,06	27,184
606,25	28,044
606,45	28,961
606,64	27,745
606,83	29,272
607,02	27,358
607,21	29,473
607,40	27,597
607,60	28,073
607,79	27,469
607,98	27,709
608,17	28,011
608,36	27,440
608,55	28,798
608,75	30,446
608,94	31,046
609,13	27,839
609,32	27,499
609,51	30,684
609,70	30,974
609,89	29,534
610,09	27,066
610,28	28,904
610,47	29,529
610,66	29,624
610,85	26,795
611,04	31,022
611,23	28,470
611,43	27,392
611,62	28,374
611,81	27,669
612,00	29,453
612,19	26,453
612,38	27,736
612,57	28,170
612,77	29,318
612,96	27,795
613,15	28,204
613,34	28,526
613,53	28,138
613,72	29,006
613,91	26,867
614,10	29,024
614,29	29,815
614,49	27,466
614,68	26,949
614,87	27,466
615,06	31,085
615,25	27,351
615,44	28,382
615,63	28,540
615,82	26,364
616,01	28,708
616,21	25,281
616,40	28,366
616,59	30,890
616,78	26,707
616,97	26,790
617,16	26,081
617,35	27,417
617,54	27,043
617,73	27,223
617,92	27,764
618,11	27,923
618,31	27,441
618,50	29,674
618,69	26,076
618,88	28,576
619,07	23,417
619,26	25,848
619,45	26,547
619,64	25,292
619,83	27,121
620,02	27,294
620,21	29,084
620,40	28,564
620,59	28,014
620,78	26,338
620,97	28,200
621,17	29,890
621,36	26,591
621,55	26,602
621,74	29,647
621,93	28,985
622,12	28,221
622,31	25,558
622,50	27,472
622,69	29,954
622,88	28,614
623,07	28,698
623,26	28,159
623,45	29,813
623,64	28,063
623,83	27,341
624,02	27,598
624,21	27,264
624,40	26,396
624,59	25,204
624,78	26,672
624,97	29,646
625,16	25,217
625,35	25,775
625,54	25,342
625,73	25,799
625,92	28,926
626,12	28,905
626,31	27,965
626,50	28,654
626,69	27,264
626,88	28,632
627,07	26,146
627,26	27,111
627,45	27,965
627,64	25,539
627,83	27,223
628,02	26,217
628,21	26,346
628,40	27,754
628,59	28,734
628,78	24,582
628,97	26,967
629,16	26,420
629,35	26,573
629,54	27,975
629,73	27,298
629,92	26,354
630,10	27,874
630,29	27,309
630,48	26,810
630,67	26,464
630,86	29,630
631,05	25,408
631,24	28,497
631,43	26,067
631,62	26,589
631,81	25,371
632,00	27,226
632,19	25,392
632,38	27,959
632,57	27,455
632,76	23,758
632,95	26,284
633,14	28,655
633,33	29,023
633,52	26,505
633,71	27,124
633,90	25,302
634,09	26,150
634,28	27,442
634,47	26,446
634,66	27,601
634,85	27,111
635,04	28,340
635,22	26,130
635,41	26,371
635,60	28,743
635,79	27,131
635,98	26,136
636,17	26,762
636,36	25,617
636,55	25,125
636,74	26,482
636,93	26,295
637,12	25,421
637,31	26,723
637,50	25,863
637,69	27,578
637,87	28,367
638,06	24,408
638,25	25,648
638,44	25,271
638,63	25,190
638,82	25,576
639,01	25,082
639,20	26,441
639,39	28,658
639,58	27,012
639,77	27,486
639,95	26,687
640,14	28,676
640,33	26,097
640,52	26,034
640,71	28,822
640,90	26,476
641,09	29,079
641,28	26,636
641,47	27,317
641,66	26,503
641,84	29,542
642,03	24,095
642,22	26,669
642,41	30,295
642,60	26,015
642,79	26,908
642,98	28,098
643,17	27,387
643,35	25,221
643,54	26,210
643,73	26,657
643,92	25,606
644,11	26,660
644,30	25,732
644,49	27,559
644,67	25,930
644,86	25,532
645,05	27,458
645,24	25,895
645,43	26,032
645,62	26,762
645,81	24,778
645,99	25,853
646,18	29,468
646,37	27,178
646,56	26,200
646,75	26,776
646,94	29,158
647,13	24,568
647,31	27,394
647,50	25,734
647,69	28,821
647,88	26,274
648,07	28,011
648,26	31,300
648,44	25,139
648,63	27,508
648,82	25,714
649,01	27,490
649,20	25,100
649,38	26,178
649,57	26,190
649,76	25,841
649,95	26,849
650,14	24,584
650,33	27,552
650,51	27,539
650,70	27,104
650,89	27,180
651,08	26,642
651,27	27,203
651,45	26,287
651,64	25,883
651,83	25,454
652,02	25,567
652,21	26,578
652,39	28,565
652,58	27,626
652,77	27,389
652,96	26,484
653,15	28,254
653,33	26,758
653,52	27,518
653,71	28,241
653,90	28,361
654,09	26,821
654,27	25,493
654,46	26,642
654,65	26,164
654,84	26,669
655,02	27,148
655,21	26,218
655,40	28,257
655,59	26,665
655,77	27,709
655,96	27,277
656,15	27,941
656,34	26,910
656,53	26,223
656,71	27,052
656,90	29,440
657,09	27,257
657,28	28,693
657,46	26,278
657,65	25,684
657,84	27,043
658,03	27,294
658,21	28,213
658,40	24,981
658,59	26,291
658,78	26,523
658,96	25,676
659,15	28,782
659,34	25,458
659,52	27,217
659,71	28,569
659,90	26,758
660,09	26,790
660,27	26,426
660,46	29,528
660,65	27,777
660,84	25,113
661,02	27,349
661,21	29,470
661,40	28,679
661,58	28,759
661,77	27,772
661,96	24,892
662,15	28,141
662,33	28,169
662,52	27,156
662,71	26,907
662,89	24,952
663,08	27,281
663,27	28,124
663,45	27,097
663,64	27,892
663,83	26,016
664,02	24,179
664,20	27,142
664,39	25,771
664,58	26,469
664,76	27,165
664,95	26,497
665,14	27,510
665,32	26,013
665,51	26,972
665,70	26,591
665,88	28,713
666,07	26,809
666,26	29,354
666,44	28,121
666,63	25,226
666,82	25,107
667,00	25,708
667,19	25,880
667,38	27,545
667,56	26,815
667,75	27,212
667,94	26,427
668,12	26,529
668,31	29,329
668,50	27,208
668,68	28,488
668,87	26,020
669,06	27,762
669,24	27,151
669,43	25,961
669,62	27,609
669,80	24,811
669,99	26,330
670,18	26,296
670,36	24,765
670,55	28,687
670,74	25,505
670,92	24,106
671,11	28,914
671,29	26,062
671,48	26,038
671,67	26,210
671,85	26,005
672,04	26,169
672,23	25,707
672,41	26,076
672,60	27,720
672,78	27,143
672,97	26,480
673,16	27,284
673,34	27,743
673,53	25,939
673,71	28,034
673,90	28,276
674,09	27,407
674,27	27,081
674,46	26,228
674,64	26,746
674,83	26,171
675,02	25,184
675,20	25,967
675,39	25,952
675,57	25,212
675,76	26,566
675,95	29,029
676,13	26,572
676,32	25,719
676,50	27,113
676,69	24,913
676,88	26,775
677,06	25,217
677,25	26,681
677,43	28,740
677,62	28,552
677,80	27,664
677,99	26,753
678,18	28,980
678,36	28,183
678,55	24,621
678,73	24,873
678,92	26,125
679,10	28,222
679,29	26,398
679,48	24,436
679,66	27,887
679,85	27,058
680,03	26,712
680,22	25,198
680,40	25,991
680,59	26,928
680,77	25,973
680,96	26,592
681,15	27,279
681,33	28,322
681,52	25,829
681,70	26,314
681,89	29,346
682,07	25,889
682,26	25,337
682,44	27,508
682,63	26,959
682,81	27,742
683,00	26,824
683,18	25,240
683,37	27,036
683,55	25,416
683,74	27,541
683,92	31,183
684,11	26,429
684,29	26,235
684,48	25,370
684,67	26,786
684,85	26,533
685,04	26,773
685,22	26,433
685,41	26,583
685,59	26,862
685,78	25,225
685,96	26,173
686,15	25,525
686,33	25,820
686,52	26,080
686,70	25,603
686,89	25,354
687,07	27,027
687,26	26,610
687,44	26,812
687,62	26,201
687,81	28,273
687,99	27,068
688,18	26,810
688,36	26,788
688,55	30,155
688,73	27,115
688,92	25,434
689,10	26,406
689,29	27,821
689,47	27,796
689,66	25,418
689,84	26,748
690,03	30,807
690,21	24,956
690,40	25,572
690,58	25,770
690,76	24,251
690,95	26,514
691,13	25,027
691,32	26,679
691,50	25,757
691,69	29,112
691,87	26,613
692,06	26,315
692,24	26,223
692,43	27,033
692,61	26,608
692,79	26,080
692,98	24,601
693,16	28,061
693,35	24,994
693,53	28,929
693,72	26,523
693,90	28,651
694,08	25,369
694,27	26,495
694,45	27,895
694,64	29,623
694,82	26,785
695,01	26,893
695,19	25,651
695,37	26,214
695,56	25,439
695,74	27,030
695,93	27,457
696,11	25,168
696,29	27,521
696,48	29,100
696,66	28,540
696,85	25,242
697,03	25,126
697,21	26,487
697,40	28,658
697,58	26,132
697,77	27,658
697,95	26,735
698,13	26,112
698,32	25,420
698,50	25,314
698,69	24,946
698,87	27,333
699,05	28,221
699,24	25,554
699,42	26,864
699,60	24,581
699,79	25,087
699,97	24,475
700,16	24,132
700,34	29,945
700,52	25,828
700,71	26,675
700,89	24,067
701,07	24,184
701,26	25,582
701,44	25,143
701,63	25,924
701,81	26,915
701,99	25,706
702,18	25,995
702,36	25,698
702,54	28,375
702,73	27,249
702,91	25,663
703,09	24,955
703,28	24,692
703,46	25,786
703,64	26,544
703,83	27,580
704,01	27,443
704,19	24,988
704,38	25,752
704,56	26,524
704,74	27,604
704,93	25,277
705,11	26,153
705,29	25,398
705,48	29,415
705,66	26,749
705,84	25,656
706,03	25,169
706,21	25,566
706,39	25,376
706,58	24,504
706,76	26,526
706,94	26,955
707,12	26,370
707,31	26,142
707,49	27,211
707,67	25,024
707,86	28,480
708,04	26,270
708,22	26,304
708,41	27,373
708,59	24,299
708,77	27,214
708,95	26,364
709,14	30,267
709,32	27,829
709,50	25,910
709,69	27,256
709,87	26,142
710,05	24,661
710,23	25,011
710,42	25,168
710,60	25,936
710,78	29,064
710,97	26,339
711,15	26,323
711,33	26,341
711,51	26,115
711,70	25,969
711,88	27,146
712,06	28,272
712,24	27,687
712,43	26,074
712,61	25,126
712,79	25,772
712,97	24,355
713,16	26,514
713,34	24,326
713,52	28,445
713,70	25,826
713,89	25,413
714,07	24,929
714,25	26,804
714,43	27,913
714,62	24,817
714,80	25,009
714,98	23,936
715,16	26,774
715,35	24,448
715,53	26,423
715,71	28,573
715,89	29,489
716,07	27,453
716,26	25,706
716,44	27,456
716,62	27,959
716,80	27,399
716,99	25,851
717,17	29,793
717,35	26,380
717,53	23,906
717,71	24,576
717,90	27,824
718,08	28,346
718,26	26,790
718,44	29,362
718,62	29,315
718,81	27,133
718,99	25,083
719,17	27,261
719,35	26,554
719,53	26,503
719,72	23,508
719,90	25,880
720,08	25,957
720,26	28,612
720,44	25,743
720,62	25,493
720,81	29,484
720,99	27,978
721,17	25,271
721,35	25,929
721,53	23,786
721,72	29,950
721,90	25,691
722,08	25,081
722,26	26,754
722,44	27,829
722,62	24,640
722,81	25,326
722,99	25,187
723,17	25,725
723,35	26,984
723,53	28,008
723,71	27,355
723,89	30,087
724,08	25,997
724,26	25,897
724,44	26,521
724,62	28,174
724,80	23,923
724,98	26,505
725,16	29,177
725,35	25,969
725,53	26,139
725,71	25,158
725,89	26,193
726,07	29,752
726,25	29,903
726,43	24,710
726,61	27,707
726,80	27,716
726,98	26,615
727,16	24,375
727,34	27,233
727,52	26,699
727,70	26,220
727,88	25,520
728,06	22,827
728,25	25,773
728,43	25,504
728,61	24,890
728,79	26,527
728,97	27,440
729,15	26,244
729,33	28,001
729,51	28,398
729,69	26,741
729,87	26,166
730,06	27,051
730,24	27,840
730,42	28,482
730,60	25,744
730,78	27,452
730,96	26,923
731,14	27,111
731,32	25,497
731,50	25,667
731,68	24,404
731,86	28,985
732,04	25,796
732,22	26,667
732,41	32,939
732,59	26,632
732,77	27,143
732,95	26,863
733,13	27,820
733,31	27,079
733,49	25,130
733,67	26,099
733,85	28,049
734,03	24,810
734,21	24,288
734,39	26,671
734,57	26,464
734,75	28,229
734,93	24,013
735,11	26,590
735,29	24,675
735,47	27,276
735,65	24,293
735,84	25,985
736,02	25,649
736,20	29,073
736,38	25,457
736,56	27,537
736,74	25,960
736,92	23,856
737,10	25,551
737,28	27,959
737,46	26,967
737,64	26,674
737,82	24,866
738,00	28,122
738,18	26,189
738,36	27,637
738,54	26,882
738,72	25,888
738,90	27,225
739,08	27,646
739,26	24,207
739,44	26,654
739,62	29,229
739,80	27,608
739,98	26,275
740,16	27,473
740,34	25,837
740,52	29,454
740,70	25,192
740,88	26,364
741,06	26,895
741,24	27,043
741,42	24,973
741,60	24,979
741,78	27,059
741,96	27,235
742,14	26,987
742,32	27,763
742,50	24,474
742,68	27,271
742,86	26,235
743,04	23,834
743,21	28,093
743,39	26,765
743,57	26,729
743,75	27,380
743,93	25,143
744,11	23,710
744,29	26,799
744,47	24,772
744,65	26,348
744,83	25,890
745,01	24,043
745,19	25,989
745,37	30,610
745,55	27,330
745,73	28,149
745,91	25,328
746,09	25,611
746,27	25,207
746,45	25,177
746,62	27,802
746,80	25,221
746,98	25,414
747,16	23,627
747,34	25,462
747,52	25,598
747,70	27,935
747,88	27,327
748,06	28,122
748,24	26,878
748,42	29,391
748,60	26,419
748,78	25,088
748,95	28,074
749,13	30,516
749,31	27,033
749,49	27,068
749,67	27,104
749,85	27,421
750,03	27,714
750,21	25,236
750,39	27,810
750,57	25,061
750,74	28,002
750,92	26,741
751,10	26,922
751,28	24,639
751,46	26,529
751,64	26,952
751,82	27,691
752,00	28,258
752,17	28,223
752,35	28,635
752,53	28,582
752,71	26,305
752,89	27,504
753,07	24,966
753,25	26,780
753,43	25,184
753,60	28,121
753,78	27,546
753,96	28,277
754,14	28,332
754,32	28,220
754,50	27,554
754,68	28,336
754,85	24,896
755,03	27,893
755,21	27,341
755,39	29,992
755,57	27,244
755,75	27,548
755,92	27,907
756,10	27,904
756,28	26,171
756,46	25,939
756,64	25,886
756,82	27,559
756,99	25,491
757,17	25,007
757,35	24,449
757,53	31,050
757,71	29,754
757,89	25,273
758,06	27,861
758,24	28,249
758,42	27,754
758,60	24,446
758,78	26,484
758,95	28,389
759,13	27,555
759,31	26,644
759,49	25,333
759,67	27,726
759,84	23,798
760,02	27,167
760,20	25,292
760,38	27,513
760,56	24,561
760,73	25,599
760,91	25,278
761,09	29,469
761,27	25,971
761,45	26,052
761,62	23,611
761,80	24,841
761,98	25,356
762,16	29,040
762,33	25,971
762,51	28,095
762,69	25,264
762,87	26,486
763,05	27,895
763,22	25,682
763,40	25,585
763,58	25,771
763,76	25,341
763,93	28,529
764,11	29,120
764,29	27,841
764,47	28,711
764,64	28,766
764,82	28,315
765,00	26,065
765,18	23,682
765,35	27,049
765,53	24,671
765,71	27,545
765,89	25,291
766,06	24,432
766,24	26,489
766,42	25,834
766,60	25,020
766,77	26,262
766,95	26,133
767,13	25,918
767,30	25,583
767,48	24,562
767,66	24,657
767,84	24,359
768,01	26,037
768,19	27,865
768,37	24,756
768,54	25,177
768,72	27,043
768,90	25,554
769,08	27,699
769,25	25,501
769,43	25,154
769,61	25,047
769,78	27,400
769,96	25,074
770,14	27,071
770,31	29,066
770,49	29,716
770,67	26,316
770,85	26,125
771,02	27,309
771,20	26,100
771,38	27,644
771,55	26,530
771,73	23,063
771,91	27,675
772,08	26,190
772,26	26,734
772,44	26,433
772,61	27,472
772,79	25,149
772,97	24,802
773,14	25,671
773,32	26,861
773,50	24,860
773,67	28,016
773,85	28,679
774,03	28,799
774,20	26,447
774,38	25,641
774,56	27,170
774,73	23,282
774,91	24,848
775,09	24,521
775,26	29,214
775,44	26,801
775,61	25,944
775,79	26,609
775,97	27,403
776,14	25,229
776,32	28,097
776,50	27,103
776,67	26,682
776,85	28,404
777,03	23,095
777,20	26,748
777,38	28,807
777,55	27,707
777,73	26,592
777,91	24,815
778,08	26,031
778,26	26,490
778,43	27,210
778,61	26,237
778,79	24,785
778,96	27,770
779,14	25,544
779,32	24,799
779,49	25,183
779,67	31,376
779,84	28,615
780,02	25,982
780,20	25,094
780,37	27,853
780,55	20,027
780,72	26,167
780,90	25,129
781,07	27,446
781,25	30,124
781,43	26,839
781,60	25,898
781,78	27,930
781,95	28,801
782,13	26,384
782,30	27,468
782,48	27,250
782,66	24,325
782,83	24,613
783,01	33,041
783,18	28,689
783,36	29,717
783,53	28,478
783,71	25,694
783,89	25,705
784,06	27,972
784,24	26,325
784,41	27,684
784,59	23,623
784,76	30,824
784,94	24,948
785,11	26,997
785,29	27,231
785,46	25,720
785,64	24,084
785,82	28,721
785,99	28,177
786,17	28,754
786,34	24,254
786,52	29,725
786,69	28,978
786,87	26,560
787,04	26,759
787,22	25,501
787,39	28,149
787,57	29,933
787,74	25,521
787,92	29,615
788,09	27,903
788,27	28,440
788,44	26,478
788,62	29,626
788,79	24,967
788,97	27,858
789,14	26,895
789,32	27,507
789,49	27,286
789,67	26,286
789,84	24,875
790,02	29,643
790,19	23,494
790,37	28,016
790,54	24,322
790,72	31,685
790,89	27,859
791,07	31,959
791,24	22,578
791,42	27,229
791,59	30,469
791,77	25,440
791,94	27,167
792,12	26,527
792,29	28,587
792,47	28,164
792,64	29,166
792,81	29,686
792,99	25,340
793,16	27,670
793,34	26,481
793,51	25,272
793,69	29,310
793,86	24,529
794,04	27,857
794,21	30,615
794,39	25,431
794,56	25,841
794,73	29,529
794,91	31,148
795,08	27,520
795,26	26,048
795,43	24,736
795,61	29,023
795,78	26,638
795,95	29,920
796,13	31,158
796,30	29,337
796,48	23,859
796,65	24,735
796,83	29,341
797,00	29,321
797,17	29,198
797,35	26,124
797,52	26,892
797,70	30,248
797,87	29,642
798,04	33,576
798,22	27,664
798,39	26,822
798,57	27,689
798,74	28,174
798,91	24,259
799,09	26,016
799,26	28,967
799,44	28,849
799,61	25,813
799,78	24,997
799,96	33,514
800,13	24,082
800,31	31,319
800,48	32,029
800,65	31,109
800,83	29,603
801,00	27,431
801,17	26,830
801,35	31,141
801,52	32,045
801,70	30,812
801,87	28,082
802,04	31,427
802,22	26,064
802,39	27,970
802,56	32,321
802,74	30,867
802,91	26,089
803,08	27,963
803,26	29,563
803,43	32,458
803,61	25,260
803,78	27,015
803,95	30,417
804,13	29,254
804,30	25,708
804,47	28,140
804,65	27,552
804,82	27,555
804,99	31,185
805,17	27,193
805,34	33,962
805,51	28,916
805,69	25,041
805,86	32,453
806,03	37,122
806,21	31,403
806,38	31,792
806,55	23,712
806,72	31,043
806,90	32,739
807,07	29,874
807,24	27,613
807,42	23,941
807,59	28,190
807,76	22,944
807,94	28,955
808,11	34,087
808,28	33,619
808,45	30,581
808,63	25,620
808,80	32,577
808,97	27,024
809,15	29,864
809,32	27,922
809,49	28,775
809,67	29,316
809,84	30,494
810,01	31,179
810,18	42,288
810,36	32,682
810,53	28,719
810,70	31,486
810,87	30,395
811,05	30,200
811,22	28,996
811,39	28,127
811,57	31,989
811,74	27,553
811,91	32,290
812,08	29,090
812,26	27,670
812,43	25,143
812,60	32,916
812,77	28,086
812,95	26,875
813,12	27,274
813,29	26,532
813,46	30,273
813,64	35,997
813,81	32,725
813,98	31,237
814,15	30,773
814,32	33,575
814,50	31,923
814,67	28,247
814,84	33,718
815,01	28,653
815,19	25,594
815,36	27,360
815,53	26,139
815,70	29,112
815,87	34,991
816,05	25,107
816,22	31,206
816,39	37,803
816,56	35,117
816,74	32,898
816,91	33,199
817,08	36,064
817,25	36,128
817,42	30,748
817,60	31,744
817,77	34,591
817,94	27,846
818,11	26,490
818,28	24,409
818,45	33,590
818,63	29,000
818,80	30,843
818,97	30,116
819,14	33,928
819,31	35,829
819,49	30,908
819,66	27,791
819,83	35,319
820,00	31,780
820,17	26,960
820,34	30,790
820,52	33,341
820,69	32,737
820,86	27,539
821,03	33,072
821,20	31,708
821,37	37,797
821,55	30,334
821,72	26,156
821,89	33,733
822,06	35,282
822,23	23,071
822,40	25,289
822,57	35,042
822,75	32,804
822,92	20,853
823,09	31,725
823,26	37,160
823,43	33,556
823,60	32,280
823,77	26,480
823,94	34,839
824,12	37,113
824,29	24,678
824,46	35,416
824,63	43,577
824,80	37,628
824,97	30,519
825,14	30,129
825,31	32,409
825,49	29,246
825,66	21,909
825,83	29,972
826,00	29,913
826,17	36,990
826,34	32,420
826,51	27,180
826,68	28,676
826,85	28,019
827,02	21,805
827,20	29,370
827,37	29,233
827,54	32,421
827,71	34,249
827,88	29,824
828,05	34,013
828,22	31,457
828,39	30,419
828,56	33,420
828,73	32,521
828,90	26,170
829,07	34,655
829,25	30,889
829,42	31,376
829,59	25,161
829,76	28,686
829,93	33,578
830,10	30,851
830,27	31,210
830,44	28,373
830,61	20,651
830,78	30,820
830,95	36,766
831,12	32,489
831,29	28,340
831,46	23,682
831,63	24,058
831,80	32,709
831,97	28,035
832,14	36,625
832,31	33,928
832,48	29,637
832,65	34,787
832,83	28,731
833,00	35,504
833,17	30,494
833,34	34,951
833,51	35,780
833,68	38,355
833,85	33,955
834,02	24,745
834,19	35,494
834,36	30,062
834,53	27,858
834,70	29,389
834,87	44,217
835,04	29,102
835,21	27,965
835,38	30,705
835,55	23,940
835,72	48,365
835,89	31,030
836,06	28,825
836,23	46,895
836,40	30,842
836,57	27,863
836,74	30,727
836,91	29,795
837,08	45,797
837,25	29,260
837,42	29,688
837,59	22,794
837,76	29,036
837,93	32,744
838,09	30,540
838,26	27,533
838,43	45,038
838,60	41,167
838,77	38,172
838,94	33,244
839,11	47,833
839,28	38,468
839,45	29,890
839,62	29,873
839,79	29,673
839,96	36,244
840,13	37,136
840,30	32,931
840,47	33,150
840,64	46,437
840,81	30,162
840,98	29,777
841,15	43,478
841,32	29,876
841,48	36,413
841,65	35,616
841,82	29,029
841,99	35,779
842,16	34,067
842,33	34,488
842,50	40,354
842,67	21,782
842,84	26,740
843,01	35,954
843,18	26,401
843,35	37,050
843,52	31,813
843,68	36,571
843,85	28,474
844,02	22,050
844,19	34,833
844,36	32,021
844,53	34,819
844,70	21,343
844,87	47,000
845,04	45,018
845,21	22,733
845,37	44,069
845,54	28,494
845,71	31,085
845,88	52,056
846,05	30,573
846,22	22,347
846,39	34,431
846,56	36,680
846,72	18,050
846,89	35,549
847,06	42,226
847,23	40,791
847,40	22,280
847,57	29,714
847,74	34,498
847,90	43,129
848,07	32,305
848,24	34,390
848,41	43,907
848,58	50,326
848,75	38,854
848,92	28,353
849,08	35,656
849,25	34,572
849,42	22,844
849,59	29,958
849,76	32,501
849,93	43,413
850,09	37,701
850,26	15,493
850,43	52,287
850,60	21,306
850,77	27,584
850,94	34,977
851,10	31,687
851,27	33,205
851,44	39,889
851,61	30,783
851,78	55,471
851,95	40,128
852,11	32,957
852,28	16,715
852,45	45,370
852,62	44,208
852,79	40,804
852,95	33,250
853,12	44,013
853,29	32,035
853,46	28,573
853,63	30,773
853,79	23,837
853,96	35,831
854,13	48,676
854,30	38,733
854,46	51,634
854,63	37,018
854,80	32,640
854,97	37,463
855,14	69,621
855,30	46,574
855,47	47,547
855,64	43,995
855,81	32,587
855,97	50,579
856,14	42,214
856,31	25,115
856,48	48,452
856,65	52,159
856,81	41,616
856,98	30,202
857,15	15,040
857,32	46,774
857,48	35,524
857,65	49,768
857,82	49,865
857,99	40,612
858,15	54,656
858,32	35,218
858,49	29,862
858,65	72,735
858,82	36,342
858,99	47,150
859,16	62,517
859,32	40,292
859,49	42,485
859,66	53,299
859,83	44,561
859,99	26,436
860,16	36,295
860,33	40,739
860,49	40,951
860,66	35,462
860,83	34,426
861,00	37,133
861,16	58,185
861,33	50,820
861,50	11,364
861,66	38,703
861,83	53,270
862,00	38,630
862,16	35,604
862,33	45,167
862,50	78,708
862,67	50,981
862,83	43,836
863,00	39,905
863,17	57,421
863,33	31,019
863,50	20,755
863,67	49,100
863,83	56,325
864,00	50,774
864,17	44,025
864,33	31,925
864,50	25,850
864,67	50,735
864,83	24,928
865,00	38,652
865,17	28,008
865,33	61,246
865,50	37,853
865,67	22,574
865,83	52,521
866,00	55,597
866,17	42,947
866,33	46,274
866,50	30,470
866,66	37,857
866,83	42,139
867,00	57,304
867,16	72,356
867,33	87,919
867,50	45,728
867,66	39,326
867,83	46,781
868,00	50,956
868,16	43,127
868,33	51,169
868,49	41,472
868,66	61,045
868,83	32,908
868,99	65,808
869,16	82,226
869,32	70,871
869,49	51,974
869,66	31,145
869,82	72,548
869,99	65,588
870,15	38,175
870,32	63,334
870,49	112,077
870,65	84,084
870,82	63,383
870,98	54,442
871,15	91,000
871,32	54,708
871,48	38,737
871,65	49,485
871,81	54,056
871,98	26,291
872,15	25,638
872,31	35,420
872,48	85,704
872,64	50,742
872,81	62,429
872,97	38,244
873,14	89,125
873,31	58,151
873,47	49,650
873,64	77,048
873,80	99,697
873,97	98,498
874,13	59,467
874,30	42,471
874,46	58,455
874,63	44,795
874,80	33,386
874,96	53,123
875,13	93,657
875,29	60,687
875,46	60,957
875,62	40,620
875,79	83,742
875,95	59,161
876,12	32,404
876,28	10,524
876,45	114,063
876,61	35,350
876,78	39,680
876,94	29,493
877,11	79,192
877,27	143,268
877,44	62,043
877,60	62,224
877,77	71,231
877,94	145,032
878,10	45,730
878,27	97,049
878,43	139,200
878,60	60,043
878,76	84,044
878,93	94,164
879,09	47,006
879,26	120,188
879,42	79,180
879,58	66,631
879,75	132,956
879,91	131,798
880,08	44,311
880,24	49,510
880,41	27,018
880,57	68,798
880,74	118,680
880,90	40,592
881,07	73,009
881,23	126,506
881,40	79,816
881,56	70,587
881,73	133,553
881,89	83,672
882,06	80,311
882,22	138,271
882,38	110,599
882,55	143,537
882,71	71,091
882,88	49,864
883,04	106,055
883,21	123,702
883,37	131,039
883,54	87,764
883,70	213,006
883,86	124,424
884,03	92,165
884,19	103,324
884,36	139,504
884,52	144,359
884,69	99,327
884,85	38,229
885,01	100,694
885,18	133,553
885,34	95,668
885,51	72,717
885,67	89,048
>>>>> Data<<<<< Espectral Procesado Extremo
