Fichero De Datos De SpectraSuite
++++++++++++++++++++++++++++++++++++
Fecha: Wed Apr 22 08:59:31 CEST 2009
Usuario: evoflor
Presente Oscuro Del Espectro: Sí
La Referencia de Presente Del Espectro De: Sí
Muestreados de los componentes de Número de espectros: 1
Espectrómetros: USB4F02353
Tiempo de integración (usec): 500000 (USB4F02353)
Promedio de Espectros Hechos un: 5 (USB4F02353)
El Alisar Del Furgón: 0 (USB4F02353)
Párrafo de de Corregir del la del del de Eléctrica del obscuridad: Sí (USB4F02353)
Estrobo/Lámpara Permitido: No (USB4F02353)
Correct for Detector Non-linearity: No (USB4F02353)
Párrafo de de Corregir del la del del de Externa del luz: No (USB4F02353)
Procesado del espectro de Número de pixeles en: 3648
>>>>> Comienza Data<<<<< Espectral Procesado Del EL
177,79	950,118
178,00	950,118
178,22	950,118
178,44	-8243,525
178,66	571,338
178,88	144,388
179,09	1248,329
179,31	213,634
179,53	-6819,288
179,75	407,723
179,96	-189,940
180,18	269,653
180,40	-327,332
180,62	-167,476
180,83	146,390
181,05	-834,527
181,27	-446,509
181,49	35,693
181,70	-249,745
181,92	476,544
182,14	182,927
182,36	-1556,060
182,58	194,442
182,79	-964,963
183,01	-10073,581
183,23	383,112
183,45	-85,292
183,66	194,787
183,88	799,062
184,10	754,197
184,32	850,371
184,53	-212,946
184,75	600,024
184,97	-221,079
185,18	1061,339
185,40	256,937
185,62	-964,717
185,84	1201,068
186,05	2255,726
186,27	-6199,311
186,49	-1238,742
186,71	227,238
186,92	613,612
187,14	1707,678
187,36	309,258
187,58	647,541
187,79	-696,667
188,01	-1226,747
188,23	101,832
188,45	49,823
188,66	-18,352
188,88	213,835
189,10	-347,538
189,31	-159,862
189,53	-16,648
189,75	1406,583
189,97	160,132
190,18	759,428
190,40	1228,564
190,62	235,316
190,83	389,578
191,05	-308,135
191,27	6041,476
191,49	571,752
191,70	431,854
191,92	523,172
192,14	375,582
192,35	-1985,137
192,57	-851,247
192,79	-2479,729
193,01	634,849
193,22	-621,999
193,44	-429,924
193,66	425,075
193,87	401,835
194,09	128,819
194,31	140,409
194,53	-413,506
194,74	216,952
194,96	-96,388
195,18	757,984
195,39	-1375,810
195,61	-406,057
195,83	3406,127
196,04	462,242
196,26	148,809
196,48	1680,776
196,70	718,765
196,91	208,533
197,13	-230,874
197,35	169,243
197,56	-449,066
197,78	5697,130
198,00	843,097
198,21	163,987
198,43	1119,197
198,65	400,406
198,86	131,954
199,08	661,946
199,30	107,580
199,51	737,096
199,73	-3716,080
199,95	187,275
200,16	563,408
200,38	169,883
200,60	3155,625
200,81	-586,639
201,03	5854,545
201,25	575,092
201,46	-700,532
201,68	690,779
201,90	809,667
202,11	597,018
202,33	162,125
202,55	170,081
202,76	784,448
202,98	496,088
203,20	283,964
203,41	-2133,968
203,63	647,155
203,85	262,544
204,06	-348,077
204,28	216,486
204,50	-302,186
204,71	413,154
204,93	178,958
205,15	247,463
205,36	-209,783
205,58	-190,510
205,80	-2792,526
206,01	-985,519
206,23	199,502
206,45	469,219
206,66	381,307
206,88	-426,849
207,10	2739,600
207,31	-49944,371
207,53	386,980
207,75	9,810
207,96	347,609
208,18	377,670
208,39	118,957
208,61	910,327
208,83	8834,876
209,04	413,150
209,26	471,671
209,48	96,210
209,69	-90,402
209,91	901,592
210,13	21,348
210,34	29,859
210,56	368,580
210,77	2450,374
210,99	371,680
211,21	-317,539
211,42	189,785
211,64	564,735
211,86	290,637
212,07	201,687
212,29	667,054
212,50	1521,754
212,72	190,359
212,94	425,095
213,15	224,361
213,37	844,240
213,58	80,212
213,80	407,856
214,02	3280,767
214,23	387,475
214,45	298,933
214,67	-21,121
214,88	-131,253
215,10	1597,165
215,31	-639,828
215,53	120,627
215,75	375,491
215,96	524,219
216,18	165,835
216,39	286,719
216,61	495,082
216,83	1091,311
217,04	394,540
217,26	72,680
217,47	138,067
217,69	252,256
217,91	177,148
218,12	1670,540
218,34	123,340
218,55	234,323
218,77	53,397
218,99	136,980
219,20	172,319
219,42	451,002
219,63	113,482
219,85	329,787
220,06	81,594
220,28	144,030
220,50	50,547
220,71	125,297
220,93	475,519
221,14	392,990
221,36	67,418
221,58	55,690
221,79	39,447
222,01	133,431
222,22	178,664
222,44	47,304
222,65	158,940
222,87	79,874
223,09	89,940
223,30	70,136
223,52	365,970
223,73	99,288
223,95	10,117
224,16	57,404
224,38	47,294
224,60	114,523
224,81	-65,630
225,03	90,720
225,24	116,870
225,46	-0,766
225,67	10,839
225,89	59,634
226,10	131,317
226,32	79,408
226,54	6,729
226,75	-33,038
226,97	169,759
227,18	109,564
227,40	99,149
227,61	79,066
227,83	45,958
228,04	96,061
228,26	64,169
228,47	38,499
228,69	78,630
228,91	41,710
229,12	89,529
229,34	22,555
229,55	53,045
229,77	43,102
229,98	40,215
230,20	44,716
230,41	-12,624
230,63	67,604
230,84	40,253
231,06	62,722
231,27	2,632
231,49	44,117
231,71	37,886
231,92	14,544
232,14	-14,435
232,35	46,575
232,57	-0,871
232,78	6,304
233,00	18,616
233,21	27,276
233,43	31,151
233,64	13,173
233,86	29,215
234,07	34,345
234,29	7,241
234,50	9,386
234,72	26,583
234,93	12,830
235,15	9,374
235,36	6,314
235,58	46,181
235,79	34,895
236,01	21,836
236,22	25,551
236,44	32,398
236,65	18,935
236,87	19,308
237,08	10,913
237,30	-9,316
237,51	21,984
237,73	13,998
237,94	10,772
238,16	21,488
238,37	11,535
238,59	5,048
238,80	10,667
239,02	7,578
239,23	26,638
239,45	7,441
239,66	25,103
239,88	26,438
240,09	15,386
240,31	10,989
240,52	4,010
240,74	16,924
240,95	15,818
241,17	9,891
241,38	7,315
241,60	-5,916
241,81	21,087
242,03	2,346
242,24	12,536
242,46	11,738
242,67	-4,687
242,89	16,038
243,10	12,748
243,32	13,790
243,53	15,950
243,75	7,871
243,96	9,514
244,18	10,070
244,39	19,116
244,60	1,829
244,82	6,162
245,03	15,246
245,25	9,629
245,46	22,897
245,68	5,321
245,89	28,191
246,11	19,663
246,32	11,590
246,54	11,233
246,75	7,474
246,97	15,158
247,18	19,398
247,39	4,982
247,61	13,122
247,82	17,698
248,04	2,920
248,25	6,694
248,47	9,392
248,68	12,187
248,90	6,366
249,11	11,674
249,33	18,363
249,54	10,181
249,75	10,718
249,97	5,210
250,18	16,216
250,40	12,009
250,61	5,340
250,83	4,034
251,04	8,327
251,25	14,374
251,47	12,324
251,68	7,619
251,90	8,978
252,11	7,276
252,33	8,261
252,54	6,540
252,76	3,554
252,97	-1,043
253,18	6,547
253,40	9,386
253,61	7,931
253,83	9,041
254,04	9,240
254,25	4,105
254,47	3,193
254,68	9,866
254,90	6,901
255,11	4,682
255,33	9,594
255,54	4,545
255,75	5,764
255,97	8,300
256,18	5,860
256,40	7,112
256,61	7,646
256,82	5,503
257,04	10,772
257,25	5,075
257,47	7,934
257,68	11,389
257,89	6,856
258,11	6,859
258,32	13,341
258,54	4,394
258,75	14,357
258,96	8,304
259,18	7,238
259,39	6,014
259,61	11,065
259,82	3,266
260,03	4,532
260,25	9,260
260,46	7,814
260,68	4,342
260,89	6,561
261,10	6,795
261,32	6,560
261,53	-2,739
261,75	7,607
261,96	4,590
262,17	19,272
262,39	9,845
262,60	1,905
262,81	5,149
263,03	13,051
263,24	8,154
263,46	3,318
263,67	8,925
263,88	7,098
264,10	5,194
264,31	6,309
264,52	3,254
264,74	10,127
264,95	5,089
265,17	10,046
265,38	10,124
265,59	12,698
265,81	9,105
266,02	2,672
266,23	-3,102
266,45	12,167
266,66	10,370
266,87	6,859
267,09	4,337
267,30	11,484
267,52	14,205
267,73	6,826
267,94	3,131
268,16	8,428
268,37	1,328
268,58	8,800
268,80	1,221
269,01	8,431
269,22	7,999
269,44	9,347
269,65	7,567
269,86	3,851
270,08	7,775
270,29	4,375
270,50	5,261
270,72	7,608
270,93	2,854
271,14	2,143
271,36	4,932
271,57	8,263
271,78	7,157
272,00	4,488
272,21	9,628
272,42	6,171
272,64	10,391
272,85	2,672
273,06	3,247
273,28	10,045
273,49	1,377
273,70	9,539
273,92	7,084
274,13	5,053
274,34	3,322
274,56	9,468
274,77	4,783
274,98	12,950
275,20	10,498
275,41	6,938
275,62	3,167
275,84	8,382
276,05	14,131
276,26	3,565
276,47	5,573
276,69	11,720
276,90	9,425
277,11	5,899
277,33	2,311
277,54	11,176
277,75	8,829
277,97	3,771
278,18	4,842
278,39	9,760
278,61	4,828
278,82	12,070
279,03	7,246
279,24	2,741
279,46	9,505
279,67	11,897
279,88	5,756
280,10	10,225
280,31	4,157
280,52	4,848
280,73	2,750
280,95	8,327
281,16	8,310
281,37	6,140
281,59	7,009
281,80	9,102
282,01	2,889
282,22	2,794
282,44	6,137
282,65	11,175
282,86	7,722
283,08	1,900
283,29	4,085
283,50	1,912
283,71	6,720
283,93	4,783
284,14	1,134
284,35	7,734
284,56	7,522
284,78	1,453
284,99	7,984
285,20	13,414
285,42	4,963
285,63	6,123
285,84	2,537
286,05	7,050
286,27	3,511
286,48	9,026
286,69	9,295
286,90	4,776
287,12	3,523
287,33	4,489
287,54	4,450
287,75	10,699
287,97	5,014
288,18	3,836
288,39	5,743
288,60	4,905
288,82	6,002
289,03	3,497
289,24	9,033
289,45	10,534
289,67	6,011
289,88	4,434
290,09	9,616
290,30	5,836
290,52	3,491
290,73	1,971
290,94	5,292
291,15	5,193
291,37	4,651
291,58	4,899
291,79	6,953
292,00	6,186
292,21	4,592
292,43	6,500
292,64	1,909
292,85	5,727
293,06	9,081
293,28	5,155
293,49	4,183
293,70	10,071
293,91	1,192
294,12	4,853
294,34	5,496
294,55	6,740
294,76	6,656
294,97	7,089
295,19	5,037
295,40	6,579
295,61	7,057
295,82	7,253
296,03	5,262
296,25	6,256
296,46	1,508
296,67	5,208
296,88	4,953
297,09	4,697
297,31	2,389
297,52	6,356
297,73	3,832
297,94	3,626
298,15	7,763
298,37	3,515
298,58	4,641
298,79	4,253
299,00	0,226
299,21	3,727
299,43	-0,227
299,64	8,516
299,85	3,692
300,06	2,865
300,27	2,904
300,49	8,741
300,70	7,991
300,91	4,317
301,12	4,850
301,33	8,601
301,54	4,052
301,76	4,977
301,97	5,037
302,18	7,383
302,39	6,697
302,60	4,155
302,82	4,745
303,03	10,737
303,24	5,267
303,45	7,047
303,66	5,837
303,87	2,408
304,09	6,726
304,30	1,895
304,51	4,854
304,72	2,872
304,93	5,611
305,14	3,821
305,36	5,085
305,57	2,683
305,78	8,968
305,99	5,165
306,20	5,089
306,41	2,575
306,62	2,325
306,84	4,661
307,05	5,870
307,26	3,605
307,47	11,145
307,68	4,310
307,89	5,936
308,11	6,608
308,32	4,634
308,53	3,122
308,74	2,775
308,95	3,699
309,16	8,690
309,37	3,657
309,59	0,595
309,80	5,511
310,01	4,561
310,22	4,049
310,43	7,864
310,64	6,449
310,85	6,629
311,06	4,199
311,28	4,878
311,49	5,210
311,70	9,315
311,91	3,579
312,12	1,221
312,33	4,254
312,54	5,706
312,75	9,355
312,97	4,244
313,18	6,665
313,39	2,791
313,60	5,462
313,81	5,772
314,02	4,479
314,23	7,045
314,44	3,576
314,65	2,431
314,87	2,838
315,08	4,149
315,29	2,795
315,50	6,589
315,71	11,299
315,92	7,044
316,13	2,322
316,34	3,818
316,55	7,485
316,77	0,989
316,98	3,359
317,19	3,380
317,40	6,229
317,61	10,142
317,82	4,619
318,03	0,691
318,24	4,441
318,45	8,612
318,66	5,786
318,87	5,028
319,09	5,411
319,30	6,428
319,51	7,206
319,72	5,903
319,93	8,323
320,14	6,014
320,35	6,653
320,56	1,928
320,77	5,946
320,98	8,711
321,19	9,424
321,40	5,625
321,62	4,592
321,83	-1,038
322,04	6,342
322,25	6,900
322,46	10,881
322,67	6,689
322,88	7,441
323,09	6,105
323,30	11,410
323,51	11,334
323,72	5,189
323,93	1,424
324,14	4,186
324,35	0,506
324,56	3,941
324,77	4,765
324,99	4,765
325,20	4,870
325,41	8,101
325,62	5,420
325,83	1,523
326,04	5,133
326,25	4,999
326,46	2,596
326,67	5,072
326,88	6,014
327,09	4,774
327,30	5,010
327,51	4,850
327,72	4,177
327,93	4,837
328,14	-0,601
328,35	6,960
328,56	3,782
328,77	5,798
328,98	7,627
329,19	5,798
329,40	5,063
329,61	3,426
329,82	1,303
330,04	7,430
330,25	6,307
330,46	6,218
330,67	3,623
330,88	6,179
331,09	2,575
331,30	5,494
331,51	5,384
331,72	5,563
331,93	8,659
332,14	3,408
332,35	5,712
332,56	4,963
332,77	8,694
332,98	4,485
333,19	6,518
333,40	4,375
333,61	5,118
333,82	6,827
334,03	6,633
334,24	12,543
334,45	5,478
334,66	7,087
334,87	3,877
335,08	3,370
335,29	3,423
335,50	4,071
335,71	1,131
335,92	7,402
336,13	5,268
336,34	2,287
336,55	5,196
336,76	6,274
336,97	3,307
337,18	4,261
337,39	5,248
337,60	6,984
337,81	4,404
338,02	7,800
338,23	3,494
338,44	4,730
338,65	0,882
338,86	6,306
339,07	6,143
339,28	4,601
339,49	4,526
339,70	2,470
339,91	6,138
340,11	8,368
340,32	4,974
340,53	2,035
340,74	1,079
340,95	2,611
341,16	4,655
341,37	6,308
341,58	5,064
341,79	3,446
342,00	4,158
342,21	-0,175
342,42	4,326
342,63	8,736
342,84	7,220
343,05	4,674
343,26	10,632
343,47	7,980
343,68	3,475
343,89	3,492
344,10	3,332
344,31	4,913
344,52	6,087
344,73	2,298
344,94	2,534
345,14	6,297
345,35	2,818
345,56	2,550
345,77	2,309
345,98	4,217
346,19	6,284
346,40	9,550
346,61	1,934
346,82	6,829
347,03	7,452
347,24	2,784
347,45	4,475
347,66	5,827
347,87	4,185
348,08	9,095
348,28	3,855
348,49	4,277
348,70	8,303
348,91	5,691
349,12	4,297
349,33	-1,524
349,54	5,605
349,75	4,931
349,96	5,332
350,17	6,151
350,38	4,664
350,59	3,922
350,80	4,485
351,00	0,860
351,21	10,876
351,42	3,279
351,63	1,253
351,84	3,872
352,05	8,132
352,26	2,821
352,47	6,468
352,68	10,167
352,89	5,767
353,09	2,829
353,30	3,027
353,51	2,732
353,72	10,095
353,93	10,053
354,14	2,973
354,35	4,353
354,56	8,336
354,77	3,153
354,98	4,106
355,18	5,925
355,39	11,177
355,60	1,721
355,81	6,061
356,02	5,903
356,23	1,260
356,44	5,615
356,65	5,856
356,85	8,651
357,06	10,121
357,27	4,630
357,48	2,749
357,69	9,264
357,90	7,434
358,11	-0,615
358,32	3,757
358,52	8,184
358,73	3,714
358,94	4,133
359,15	6,249
359,36	9,141
359,57	3,688
359,78	7,109
359,98	6,856
360,19	2,206
360,40	3,585
360,61	8,026
360,82	4,306
361,03	12,688
361,24	16,930
361,44	2,710
361,65	6,693
361,86	5,051
362,07	4,857
362,28	8,329
362,49	4,984
362,70	7,607
362,90	4,876
363,11	4,272
363,32	2,601
363,53	4,320
363,74	11,162
363,95	8,940
364,15	5,371
364,36	8,563
364,57	1,369
364,78	3,282
364,99	3,323
365,20	6,988
365,40	7,359
365,61	5,775
365,82	6,390
366,03	9,915
366,24	3,509
366,45	0,198
366,65	-0,149
366,86	4,866
367,07	4,862
367,28	2,515
367,49	1,763
367,69	8,101
367,90	5,100
368,11	6,575
368,32	5,319
368,53	9,776
368,73	2,764
368,94	6,215
369,15	7,722
369,36	6,581
369,57	7,303
369,78	6,380
369,98	4,115
370,19	8,283
370,40	0,775
370,61	6,751
370,82	7,223
371,02	10,778
371,23	4,919
371,44	4,692
371,65	4,028
371,85	11,054
372,06	3,474
372,27	6,972
372,48	3,040
372,69	8,958
372,89	4,920
373,10	7,030
373,31	4,823
373,52	6,755
373,73	8,383
373,93	7,128
374,14	5,139
374,35	4,670
374,56	5,557
374,76	5,780
374,97	5,048
375,18	11,642
375,39	5,789
375,60	8,583
375,80	5,624
376,01	3,169
376,22	8,847
376,43	5,484
376,63	7,170
376,84	8,097
377,05	4,772
377,26	6,153
377,46	4,004
377,67	6,120
377,88	2,488
378,09	6,252
378,29	6,348
378,50	4,286
378,71	7,379
378,92	1,574
379,12	0,860
379,33	3,788
379,54	7,316
379,75	6,774
379,95	6,823
380,16	7,371
380,37	5,251
380,58	2,015
380,78	6,217
380,99	2,438
381,20	3,780
381,41	9,316
381,61	6,231
381,82	6,905
382,03	7,960
382,24	7,969
382,44	5,227
382,65	8,583
382,86	10,675
383,06	9,704
383,27	3,587
383,48	5,782
383,69	5,042
383,89	3,446
384,10	2,179
384,31	6,296
384,51	9,081
384,72	9,550
384,93	4,370
385,14	1,839
385,34	3,572
385,55	5,306
385,76	0,265
385,96	10,388
386,17	5,380
386,38	3,033
386,59	11,179
386,79	9,230
387,00	12,606
387,21	10,200
387,41	6,228
387,62	6,488
387,83	10,872
388,03	3,944
388,24	6,535
388,45	7,398
388,66	7,505
388,86	5,280
389,07	2,574
389,28	14,120
389,48	7,440
389,69	4,272
389,90	3,280
390,10	3,528
390,31	10,405
390,52	4,108
390,72	5,051
390,93	5,126
391,14	7,005
391,34	7,230
391,55	6,371
391,76	9,702
391,96	12,342
392,17	7,600
392,38	4,794
392,58	6,076
392,79	5,216
393,00	4,259
393,20	4,944
393,41	6,691
393,62	11,408
393,82	5,544
394,03	7,804
394,24	5,646
394,44	9,908
394,65	9,590
394,86	5,072
395,06	11,580
395,27	10,060
395,48	5,595
395,68	3,456
395,89	8,227
396,10	12,783
396,30	3,966
396,51	3,991
396,72	7,830
396,92	4,123
397,13	8,837
397,34	3,867
397,54	7,344
397,75	6,718
397,95	5,060
398,16	7,729
398,37	7,325
398,57	0,565
398,78	5,327
398,99	8,460
399,19	10,350
399,40	15,046
399,60	6,611
399,81	10,790
400,02	14,959
400,22	10,525
400,43	15,087
400,64	4,909
400,84	4,317
401,05	10,184
401,25	11,976
401,46	7,368
401,67	11,594
401,87	6,992
402,08	7,390
402,29	8,902
402,49	15,119
402,70	11,676
402,90	6,707
403,11	11,598
403,32	3,281
403,52	3,941
403,73	9,139
403,93	10,576
404,14	18,909
404,35	9,636
404,55	4,880
404,76	8,007
404,96	9,482
405,17	14,461
405,38	13,929
405,58	10,329
405,79	12,684
405,99	12,905
406,20	11,191
406,40	13,163
406,61	11,795
406,82	11,307
407,02	10,778
407,23	6,944
407,43	11,809
407,64	7,856
407,85	11,523
408,05	7,477
408,26	19,561
408,46	17,198
408,67	12,679
408,87	10,272
409,08	10,417
409,29	19,103
409,49	17,280
409,70	13,209
409,90	11,310
410,11	14,267
410,31	14,144
410,52	13,655
410,72	11,213
410,93	18,220
411,14	12,744
411,34	10,187
411,55	11,863
411,75	15,223
411,96	17,481
412,16	15,850
412,37	14,295
412,57	17,348
412,78	19,257
412,99	11,694
413,19	17,985
413,40	14,760
413,60	13,248
413,81	15,450
414,01	14,037
414,22	15,285
414,42	15,049
414,63	14,337
414,83	17,008
415,04	21,361
415,24	17,816
415,45	14,812
415,65	18,844
415,86	19,721
416,07	14,299
416,27	20,951
416,48	20,189
416,68	24,875
416,89	15,704
417,09	21,242
417,30	24,443
417,50	13,068
417,71	18,657
417,91	21,205
418,12	18,725
418,32	21,557
418,53	12,955
418,73	17,719
418,94	20,116
419,14	20,335
419,35	16,874
419,55	19,610
419,76	23,093
419,96	20,795
420,17	18,242
420,37	18,532
420,58	23,055
420,78	21,550
420,99	20,425
421,19	26,215
421,40	26,905
421,60	22,246
421,81	17,089
422,01	21,175
422,22	23,413
422,42	24,100
422,63	24,899
422,83	23,573
423,04	26,982
423,24	30,557
423,45	21,798
423,65	19,640
423,86	27,390
424,06	26,068
424,27	18,384
424,47	21,998
424,67	18,265
424,88	23,097
425,08	19,674
425,29	24,579
425,49	17,296
425,70	21,916
425,90	23,151
426,11	23,752
426,31	22,382
426,52	26,514
426,72	21,533
426,93	20,373
427,13	27,551
427,33	19,045
427,54	25,166
427,74	26,382
427,95	30,288
428,15	23,077
428,36	23,562
428,56	21,959
428,77	23,301
428,97	26,234
429,18	25,866
429,38	24,890
429,58	23,167
429,79	26,926
429,99	22,031
430,20	24,865
430,40	28,285
430,61	23,051
430,81	24,857
431,01	26,774
431,22	30,373
431,42	26,267
431,63	20,433
431,83	23,365
432,04	27,885
432,24	28,190
432,44	25,903
432,65	26,297
432,85	25,495
433,06	27,073
433,26	24,014
433,47	26,502
433,67	24,263
433,87	25,305
434,08	25,835
434,28	22,198
434,49	24,486
434,69	34,011
434,89	27,871
435,10	24,884
435,30	30,771
435,51	26,626
435,71	24,502
435,91	27,204
436,12	25,634
436,32	25,569
436,53	26,663
436,73	26,469
436,93	30,056
437,14	24,594
437,34	27,876
437,55	23,984
437,75	27,983
437,95	32,430
438,16	22,982
438,36	25,345
438,57	27,222
438,77	26,575
438,97	27,786
439,18	28,796
439,38	26,260
439,58	25,267
439,79	24,615
439,99	20,743
440,20	32,298
440,40	29,725
440,60	29,499
440,81	24,992
441,01	30,446
441,21	31,720
441,42	31,561
441,62	28,089
441,83	24,896
442,03	24,334
442,23	29,642
442,44	26,158
442,64	32,248
442,84	25,393
443,05	31,676
443,25	25,396
443,45	28,663
443,66	27,524
443,86	23,974
444,06	28,364
444,27	25,192
444,47	31,880
444,67	27,582
444,88	28,599
445,08	27,509
445,28	27,510
445,49	30,403
445,69	27,164
445,90	29,397
446,10	31,322
446,30	25,603
446,51	28,693
446,71	30,701
446,91	31,876
447,12	33,957
447,32	28,135
447,52	27,374
447,72	33,006
447,93	25,629
448,13	23,785
448,33	34,119
448,54	34,779
448,74	24,379
448,94	28,496
449,15	34,390
449,35	28,650
449,55	31,620
449,76	29,393
449,96	29,245
450,16	30,569
450,37	25,117
450,57	30,296
450,77	27,970
450,98	27,302
451,18	31,023
451,38	29,146
451,58	33,014
451,79	27,898
451,99	30,256
452,19	30,208
452,40	35,999
452,60	27,707
452,80	31,097
453,00	31,919
453,21	27,771
453,41	33,673
453,61	26,593
453,82	31,735
454,02	27,404
454,22	41,411
454,42	33,133
454,63	27,407
454,83	27,232
455,03	32,403
455,24	29,425
455,44	29,312
455,64	30,917
455,84	26,435
456,05	28,416
456,25	24,541
456,45	28,520
456,65	29,442
456,86	32,890
457,06	28,521
457,26	28,142
457,47	34,706
457,67	25,416
457,87	25,086
458,07	34,061
458,28	32,080
458,48	35,462
458,68	25,088
458,88	37,456
459,09	29,003
459,29	34,337
459,49	22,945
459,69	29,548
459,90	29,230
460,10	29,283
460,30	31,722
460,50	25,341
460,71	33,719
460,91	26,459
461,11	32,010
461,31	29,097
461,52	34,399
461,72	29,249
461,92	30,575
462,12	34,505
462,32	23,852
462,53	27,819
462,73	31,105
462,93	32,592
463,13	33,647
463,34	30,482
463,54	30,067
463,74	28,063
463,94	28,559
464,14	31,247
464,35	25,623
464,55	35,330
464,75	36,735
464,95	31,741
465,16	26,220
465,36	35,317
465,56	29,100
465,76	26,860
465,96	30,273
466,17	28,385
466,37	26,036
466,57	31,961
466,77	33,219
466,97	27,394
467,18	36,932
467,38	30,791
467,58	36,686
467,78	35,871
467,98	32,045
468,19	29,434
468,39	32,037
468,59	28,403
468,79	30,345
468,99	32,427
469,19	27,276
469,40	30,103
469,60	28,171
469,80	28,054
470,00	29,274
470,20	33,471
470,41	26,445
470,61	33,735
470,81	32,052
471,01	31,634
471,21	33,101
471,41	32,604
471,62	32,268
471,82	27,018
472,02	26,083
472,22	30,096
472,42	28,730
472,62	33,700
472,83	26,728
473,03	32,224
473,23	30,173
473,43	32,400
473,63	33,231
473,83	28,424
474,03	30,716
474,24	31,826
474,44	28,874
474,64	31,634
474,84	26,962
475,04	26,972
475,24	31,207
475,45	27,986
475,65	28,335
475,85	32,382
476,05	24,661
476,25	29,301
476,45	30,833
476,65	32,835
476,85	28,721
477,06	29,235
477,26	28,472
477,46	28,332
477,66	31,872
477,86	29,539
478,06	30,967
478,26	36,099
478,46	29,087
478,67	32,001
478,87	29,491
479,07	28,993
479,27	32,028
479,47	29,697
479,67	23,969
479,87	26,400
480,07	32,967
480,28	27,996
480,48	27,597
480,68	33,110
480,88	35,619
481,08	33,951
481,28	27,924
481,48	30,087
481,68	28,676
481,88	25,433
482,08	29,214
482,29	31,540
482,49	26,964
482,69	29,197
482,89	27,942
483,09	35,769
483,29	27,216
483,49	22,309
483,69	29,078
483,89	30,398
484,09	28,316
484,29	27,442
484,50	29,101
484,70	31,678
484,90	27,889
485,10	30,591
485,30	31,205
485,50	33,870
485,70	30,251
485,90	27,392
486,10	25,517
486,30	26,582
486,50	30,000
486,70	26,219
486,90	27,969
487,10	31,209
487,30	30,233
487,51	28,665
487,71	26,958
487,91	27,600
488,11	32,283
488,31	27,020
488,51	29,795
488,71	27,207
488,91	27,801
489,11	27,688
489,31	28,212
489,51	29,826
489,71	27,044
489,91	27,971
490,11	29,218
490,31	30,176
490,51	31,052
490,71	31,145
490,91	26,917
491,11	27,910
491,31	30,886
491,51	29,386
491,72	27,956
491,92	29,504
492,12	33,390
492,32	30,080
492,52	31,600
492,72	26,196
492,92	28,383
493,12	30,381
493,32	26,893
493,52	27,656
493,72	28,064
493,92	30,336
494,12	28,641
494,32	29,383
494,52	29,123
494,72	29,182
494,92	27,428
495,12	31,969
495,32	33,778
495,52	30,019
495,72	29,646
495,92	30,902
496,12	31,479
496,32	29,042
496,52	26,534
496,72	30,816
496,92	32,110
497,12	31,714
497,32	30,870
497,52	27,550
497,72	30,159
497,92	28,976
498,12	28,949
498,32	29,576
498,52	26,765
498,72	27,946
498,92	27,311
499,12	30,646
499,32	25,877
499,52	32,625
499,72	27,803
499,92	32,514
500,12	30,397
500,32	26,883
500,52	29,246
500,72	33,830
500,91	33,132
501,11	28,686
501,31	29,167
501,51	30,604
501,71	29,716
501,91	31,160
502,11	26,655
502,31	31,102
502,51	31,461
502,71	30,947
502,91	26,949
503,11	29,924
503,31	32,086
503,51	24,343
503,71	27,706
503,91	30,893
504,11	27,803
504,31	30,022
504,51	27,869
504,71	34,420
504,91	26,263
505,10	31,782
505,30	28,203
505,50	29,024
505,70	27,308
505,90	30,158
506,10	27,621
506,30	28,384
506,50	30,295
506,70	31,628
506,90	26,117
507,10	28,962
507,30	27,329
507,50	27,927
507,70	30,653
507,89	31,788
508,09	27,677
508,29	26,557
508,49	25,233
508,69	30,930
508,89	28,674
509,09	28,640
509,29	27,745
509,49	31,544
509,69	30,638
509,89	31,787
510,09	30,779
510,28	30,365
510,48	29,749
510,68	28,504
510,88	28,698
511,08	29,512
511,28	28,251
511,48	26,764
511,68	25,202
511,88	34,541
512,07	27,595
512,27	28,359
512,47	29,531
512,67	26,412
512,87	23,801
513,07	30,387
513,27	25,900
513,47	28,423
513,67	24,847
513,86	29,637
514,06	29,376
514,26	27,864
514,46	31,356
514,66	28,424
514,86	30,009
515,06	31,243
515,26	31,224
515,45	27,829
515,65	26,890
515,85	29,502
516,05	27,541
516,25	28,342
516,45	31,316
516,65	24,613
516,84	27,875
517,04	31,342
517,24	28,667
517,44	29,048
517,64	31,822
517,84	31,977
518,04	29,050
518,23	31,504
518,43	32,468
518,63	28,977
518,83	25,565
519,03	28,362
519,23	28,866
519,42	28,499
519,62	28,590
519,82	26,670
520,02	26,878
520,22	29,809
520,42	28,927
520,61	31,090
520,81	29,909
521,01	32,183
521,21	26,500
521,41	28,128
521,61	32,284
521,80	27,291
522,00	26,550
522,20	33,153
522,40	30,207
522,60	27,530
522,79	26,269
522,99	33,504
523,19	24,968
523,39	27,755
523,59	29,495
523,78	27,335
523,98	28,213
524,18	30,168
524,38	23,003
524,58	27,816
524,77	30,610
524,97	31,637
525,17	27,280
525,37	29,759
525,57	34,081
525,76	29,729
525,96	32,510
526,16	26,766
526,36	27,066
526,56	28,412
526,75	28,838
526,95	29,409
527,15	28,873
527,35	29,738
527,55	23,489
527,74	24,718
527,94	27,556
528,14	26,321
528,34	28,185
528,53	26,184
528,73	33,332
528,93	29,251
529,13	27,281
529,32	27,927
529,52	29,181
529,72	27,012
529,92	28,988
530,12	27,278
530,31	28,410
530,51	31,129
530,71	27,222
530,91	33,759
531,10	23,422
531,30	28,962
531,50	27,021
531,70	29,944
531,89	31,081
532,09	25,638
532,29	28,082
532,49	28,744
532,68	27,729
532,88	25,293
533,08	27,529
533,28	29,904
533,47	30,906
533,67	30,126
533,87	28,691
534,06	34,598
534,26	26,241
534,46	27,288
534,66	29,269
534,85	29,076
535,05	24,991
535,25	24,965
535,45	26,557
535,64	31,757
535,84	29,557
536,04	25,755
536,23	29,232
536,43	32,447
536,63	28,556
536,83	28,714
537,02	28,842
537,22	26,917
537,42	29,175
537,61	29,978
537,81	28,892
538,01	29,900
538,20	28,759
538,40	26,740
538,60	26,000
538,80	27,991
538,99	30,437
539,19	28,152
539,39	28,758
539,58	28,984
539,78	27,932
539,98	26,931
540,17	26,667
540,37	31,248
540,57	26,105
540,76	28,653
540,96	23,130
541,16	27,423
541,36	27,533
541,55	25,364
541,75	25,780
541,95	27,542
542,14	25,055
542,34	25,356
542,54	21,237
542,73	28,402
542,93	24,421
543,13	25,113
543,32	25,296
543,52	29,160
543,72	24,419
543,91	26,006
544,11	23,897
544,31	20,914
544,50	25,531
544,70	28,135
544,89	26,526
545,09	28,637
545,29	25,873
545,48	27,255
545,68	24,713
545,88	27,052
546,07	23,310
546,27	25,123
546,47	29,783
546,66	27,266
546,86	25,978
547,06	27,524
547,25	24,127
547,45	27,263
547,64	27,000
547,84	28,922
548,04	27,835
548,23	32,341
548,43	28,702
548,63	28,813
548,82	28,483
549,02	28,985
549,21	26,838
549,41	27,573
549,61	27,828
549,80	26,443
550,00	26,580
550,20	25,538
550,39	28,138
550,59	27,679
550,78	28,991
550,98	27,530
551,18	30,271
551,37	27,062
551,57	26,976
551,76	27,714
551,96	26,181
552,16	26,120
552,35	27,661
552,55	26,747
552,74	26,280
552,94	29,384
553,14	25,646
553,33	29,114
553,53	26,952
553,72	26,488
553,92	31,054
554,12	26,283
554,31	29,759
554,51	27,966
554,70	24,930
554,90	24,644
555,09	30,842
555,29	25,815
555,49	27,978
555,68	28,455
555,88	24,769
556,07	26,638
556,27	31,960
556,46	26,269
556,66	27,489
556,86	32,280
557,05	29,467
557,25	26,589
557,44	26,425
557,64	25,779
557,83	28,439
558,03	29,055
558,22	24,076
558,42	28,863
558,62	28,045
558,81	29,868
559,01	28,262
559,20	29,389
559,40	26,761
559,59	27,781
559,79	25,958
559,98	27,631
560,18	26,767
560,37	27,283
560,57	27,399
560,76	26,490
560,96	23,667
561,16	26,452
561,35	25,361
561,55	29,368
561,74	27,446
561,94	29,512
562,13	27,187
562,33	27,398
562,52	29,755
562,72	25,787
562,91	27,127
563,11	26,836
563,30	27,970
563,50	27,228
563,69	26,064
563,89	25,854
564,08	28,617
564,28	28,328
564,47	28,530
564,67	27,708
564,86	25,917
565,06	26,297
565,25	25,492
565,45	25,457
565,64	30,567
565,84	26,729
566,03	24,291
566,23	27,572
566,42	27,994
566,62	26,513
566,81	25,647
567,01	24,466
567,20	27,556
567,40	27,556
567,59	25,331
567,79	31,181
567,98	30,731
568,18	27,376
568,37	29,164
568,57	27,351
568,76	26,657
568,96	28,757
569,15	25,301
569,35	27,214
569,54	30,072
569,73	29,617
569,93	26,365
570,12	26,326
570,32	27,618
570,51	26,524
570,71	28,160
570,90	29,020
571,10	27,161
571,29	26,653
571,49	27,242
571,68	27,850
571,87	28,826
572,07	28,687
572,26	23,700
572,46	27,886
572,65	27,994
572,85	25,554
573,04	28,041
573,24	26,625
573,43	29,942
573,62	28,691
573,82	27,283
574,01	26,132
574,21	24,756
574,40	26,583
574,60	24,655
574,79	31,472
574,98	28,446
575,18	27,952
575,37	24,716
575,57	27,559
575,76	28,192
575,96	27,951
576,15	29,066
576,34	27,234
576,54	27,293
576,73	27,797
576,93	27,212
577,12	27,811
577,31	28,399
577,51	26,339
577,70	26,938
577,90	26,583
578,09	27,630
578,28	26,400
578,48	27,633
578,67	29,378
578,87	27,912
579,06	26,761
579,25	28,210
579,45	28,559
579,64	26,244
579,84	25,695
580,03	28,142
580,22	28,696
580,42	25,961
580,61	28,472
580,81	28,333
581,00	27,033
581,19	28,862
581,39	26,862
581,58	26,942
581,77	25,433
581,97	29,569
582,16	27,257
582,35	27,401
582,55	27,555
582,74	29,241
582,94	29,102
583,13	27,601
583,32	26,955
583,52	29,412
583,71	28,507
583,90	28,297
584,10	29,179
584,29	29,571
584,48	26,076
584,68	27,025
584,87	29,075
585,06	27,982
585,26	27,340
585,45	27,901
585,65	27,593
585,84	27,435
586,03	26,887
586,23	26,917
586,42	26,727
586,61	31,801
586,81	28,848
587,00	26,276
587,19	28,225
587,39	28,291
587,58	26,698
587,77	27,529
587,97	25,383
588,16	27,146
588,35	27,062
588,54	27,361
588,74	28,386
588,93	29,234
589,12	29,386
589,32	26,491
589,51	27,361
589,70	26,179
589,90	24,689
590,09	24,374
590,28	30,548
590,48	25,649
590,67	28,974
590,86	27,712
591,06	27,066
591,25	28,498
591,44	29,259
591,63	28,298
591,83	27,929
592,02	28,909
592,21	27,038
592,41	27,688
592,60	29,858
592,79	28,418
592,98	29,254
593,18	27,643
593,37	26,884
593,56	27,732
593,76	28,684
593,95	27,136
594,14	27,446
594,33	30,169
594,53	27,333
594,72	25,431
594,91	28,555
595,10	28,386
595,30	27,750
595,49	27,210
595,68	30,088
595,88	30,597
596,07	28,775
596,26	30,544
596,45	27,134
596,65	26,257
596,84	26,935
597,03	30,409
597,22	27,332
597,42	29,775
597,61	27,433
597,80	29,143
597,99	26,820
598,19	30,094
598,38	27,639
598,57	27,164
598,76	28,932
598,95	29,414
599,15	28,942
599,34	27,338
599,53	27,165
599,72	27,470
599,92	28,916
600,11	29,796
600,30	28,356
600,49	31,788
600,69	27,687
600,88	28,863
601,07	27,250
601,26	26,026
601,45	26,677
601,65	26,427
601,84	28,771
602,03	27,384
602,22	29,217
602,42	29,874
602,61	26,402
602,80	28,784
602,99	28,389
603,18	27,379
603,38	30,059
603,57	27,142
603,76	25,943
603,95	27,056
604,14	28,500
604,34	26,784
604,53	26,713
604,72	28,850
604,91	29,041
605,10	28,024
605,29	29,909
605,49	27,292
605,68	28,276
605,87	31,643
606,06	27,451
606,25	27,578
606,45	29,353
606,64	27,977
606,83	30,648
607,02	26,714
607,21	29,247
607,40	27,697
607,60	27,079
607,79	27,512
607,98	28,023
608,17	27,562
608,36	27,726
608,55	28,940
608,75	28,846
608,94	30,588
609,13	26,224
609,32	26,685
609,51	28,876
609,70	28,497
609,89	27,394
610,09	26,583
610,28	27,192
610,47	27,965
610,66	28,226
610,85	25,684
611,04	29,172
611,23	25,919
611,43	25,801
611,62	27,640
611,81	26,601
612,00	27,270
612,19	26,838
612,38	29,219
612,57	27,837
612,77	26,774
612,96	26,450
613,15	27,299
613,34	28,519
613,53	27,956
613,72	26,236
613,91	26,587
614,10	26,820
614,29	28,726
614,49	27,440
614,68	27,356
614,87	28,749
615,06	29,924
615,25	27,532
615,44	30,232
615,63	28,655
615,82	28,226
616,01	28,944
616,21	25,647
616,40	28,239
616,59	29,527
616,78	27,880
616,97	27,353
617,16	26,583
617,35	29,129
617,54	28,035
617,73	29,772
617,92	27,480
618,11	29,187
618,31	26,671
618,50	29,488
618,69	28,315
618,88	27,585
619,07	23,841
619,26	25,873
619,45	27,141
619,64	25,560
619,83	26,530
620,02	27,456
620,21	30,117
620,40	28,441
620,59	30,033
620,78	27,438
620,97	27,408
621,17	30,184
621,36	25,314
621,55	25,879
621,74	28,310
621,93	29,549
622,12	28,868
622,31	26,603
622,50	28,954
622,69	28,931
622,88	29,246
623,07	30,049
623,26	29,289
623,45	30,636
623,64	28,245
623,83	27,661
624,02	26,939
624,21	28,477
624,40	26,505
624,59	24,787
624,78	28,040
624,97	29,264
625,16	25,913
625,35	26,191
625,54	25,212
625,73	26,836
625,92	29,159
626,12	30,204
626,31	30,423
626,50	28,185
626,69	28,360
626,88	27,953
627,07	27,475
627,26	27,736
627,45	29,353
627,64	27,243
627,83	28,908
628,02	25,903
628,21	27,383
628,40	28,696
628,59	29,695
628,78	25,830
628,97	27,860
629,16	26,877
629,35	27,137
629,54	29,203
629,73	28,133
629,92	26,585
630,10	27,064
630,29	30,136
630,48	26,920
630,67	25,743
630,86	28,486
631,05	26,488
631,24	27,010
631,43	26,615
631,62	28,106
631,81	26,439
632,00	27,810
632,19	25,723
632,38	27,562
632,57	28,706
632,76	25,458
632,95	27,062
633,14	29,409
633,33	28,332
633,52	29,175
633,71	26,884
633,90	25,400
634,09	27,744
634,28	28,157
634,47	27,717
634,66	27,878
634,85	27,882
635,04	30,288
635,22	26,378
635,41	26,626
635,60	29,778
635,79	28,911
635,98	26,359
636,17	28,639
636,36	25,766
636,55	25,998
636,74	26,378
636,93	26,824
637,12	26,600
637,31	26,768
637,50	26,285
637,69	27,130
637,87	28,736
638,06	25,889
638,25	25,403
638,44	25,033
638,63	25,885
638,82	26,166
639,01	25,720
639,20	27,415
639,39	28,390
639,58	26,582
639,77	26,442
639,95	25,848
640,14	27,853
640,33	27,115
640,52	26,967
640,71	30,678
640,90	25,974
641,09	29,240
641,28	26,336
641,47	29,349
641,66	26,870
641,84	29,493
642,03	23,764
642,22	26,693
642,41	30,309
642,60	26,770
642,79	27,781
642,98	26,567
643,17	27,611
643,35	25,090
643,54	26,508
643,73	26,166
643,92	27,524
644,11	26,277
644,30	26,357
644,49	27,996
644,67	26,457
644,86	27,410
645,05	27,369
645,24	26,169
645,43	26,067
645,62	26,952
645,81	24,792
645,99	25,867
646,18	28,883
646,37	27,212
646,56	27,377
646,75	27,794
646,94	28,154
647,13	26,076
647,31	26,794
647,50	27,306
647,69	29,729
647,88	28,190
648,07	27,564
648,26	32,411
648,44	27,586
648,63	27,763
648,82	27,870
649,01	29,296
649,20	24,880
649,38	26,960
649,57	27,219
649,76	26,168
649,95	28,260
650,14	26,695
650,33	26,755
650,51	27,127
650,70	27,251
650,89	27,902
651,08	26,956
651,27	28,535
651,45	25,448
651,64	26,252
651,83	26,970
652,02	26,222
652,21	26,719
652,39	29,290
652,58	29,028
652,77	29,520
652,96	28,394
653,15	29,096
653,33	28,341
653,52	28,246
653,71	29,205
653,90	28,749
654,09	27,711
654,27	27,735
654,46	29,624
654,65	28,255
654,84	27,699
655,02	29,256
655,21	28,084
655,40	29,492
655,59	28,335
655,77	29,742
655,96	28,395
656,15	29,592
656,34	28,855
656,53	28,799
656,71	28,768
656,90	29,318
657,09	27,352
657,28	29,228
657,46	26,828
657,65	27,432
657,84	26,360
658,03	28,255
658,21	28,895
658,40	26,543
658,59	26,761
658,78	28,005
658,96	25,798
659,15	28,312
659,34	26,381
659,52	27,200
659,71	27,960
659,90	27,173
660,09	26,452
660,27	27,146
660,46	28,725
660,65	28,123
660,84	25,756
661,02	28,619
661,21	28,640
661,40	28,399
661,58	27,581
661,77	28,582
661,96	25,372
662,15	27,423
662,33	26,296
662,52	28,040
662,71	27,810
662,89	25,327
663,08	26,859
663,27	28,313
663,45	27,464
663,64	27,656
663,83	27,080
664,02	25,149
664,20	27,812
664,39	27,032
664,58	27,510
664,76	25,919
664,95	27,134
665,14	28,628
665,32	25,936
665,51	28,156
665,70	28,815
665,88	28,035
666,07	26,089
666,26	29,671
666,44	28,134
666,63	24,612
666,82	26,267
667,00	26,433
667,19	25,498
667,38	26,904
667,56	26,469
667,75	27,096
667,94	26,480
668,12	26,702
668,31	28,210
668,50	27,723
668,68	28,581
668,87	25,583
669,06	27,785
669,24	29,217
669,43	26,302
669,62	27,183
669,80	25,180
669,99	26,004
670,18	27,163
670,36	25,056
670,55	28,902
670,74	25,478
670,92	24,006
671,11	29,633
671,29	25,293
671,48	25,732
671,67	25,591
671,85	26,844
672,04	27,021
672,23	25,873
672,41	26,785
672,60	27,502
672,78	26,962
672,97	27,033
673,16	27,693
673,34	28,008
673,53	24,630
673,71	27,651
673,90	28,162
674,09	26,748
674,27	27,637
674,46	26,488
674,64	26,545
674,83	27,011
675,02	25,021
675,20	26,407
675,39	25,955
675,57	25,603
675,76	26,280
675,95	29,508
676,13	27,419
676,32	25,646
676,50	26,009
676,69	24,721
676,88	27,008
677,06	24,827
677,25	27,307
677,43	29,010
677,62	28,853
677,80	26,674
677,99	26,776
678,18	28,155
678,36	28,689
678,55	25,548
678,73	24,886
678,92	26,109
679,10	26,417
679,29	26,892
679,48	25,376
679,66	27,190
679,85	27,061
680,03	26,898
680,22	25,406
680,40	27,166
680,59	28,132
680,77	25,538
680,96	26,546
681,15	26,726
681,33	28,442
681,52	28,342
681,70	26,072
681,89	30,126
682,07	25,710
682,26	26,046
682,44	26,996
682,63	26,651
682,81	28,692
683,00	27,593
683,18	25,477
683,37	26,645
683,55	26,259
683,74	28,318
683,92	33,046
684,11	27,013
684,29	26,038
684,48	26,340
684,67	26,158
684,85	26,773
685,04	28,265
685,22	27,312
685,41	28,209
685,59	26,473
685,78	25,478
685,96	26,753
686,15	25,859
686,33	25,680
686,52	27,803
686,70	25,813
686,89	27,279
687,07	26,627
687,26	27,211
687,44	27,504
687,62	26,600
687,81	27,297
687,99	28,319
688,18	27,723
688,36	27,626
688,55	30,340
688,73	26,184
688,92	26,170
689,10	26,855
689,29	28,032
689,47	28,039
689,66	26,720
689,84	26,158
690,03	28,463
690,21	25,804
690,40	25,242
690,58	25,194
690,76	25,950
690,95	26,978
691,13	25,412
691,32	28,071
691,50	26,425
691,69	28,044
691,87	27,485
692,06	26,946
692,24	26,359
692,43	27,923
692,61	26,997
692,79	25,717
692,98	24,834
693,16	28,836
693,35	25,445
693,53	27,566
693,72	28,341
693,90	29,716
694,08	25,743
694,27	26,107
694,45	27,591
694,64	28,583
694,82	25,997
695,01	27,184
695,19	24,959
695,37	26,835
695,56	26,872
695,74	27,341
695,93	27,825
696,11	26,256
696,29	28,254
696,48	27,708
696,66	28,150
696,85	25,402
697,03	25,956
697,21	27,161
697,40	28,613
697,58	27,992
697,77	28,560
697,95	27,831
698,13	25,479
698,32	25,921
698,50	25,192
698,69	26,432
698,87	27,921
699,05	29,556
699,24	26,331
699,42	25,944
699,60	25,197
699,79	25,685
699,97	24,459
700,16	25,587
700,34	30,704
700,52	27,166
700,71	26,810
700,89	25,035
701,07	24,177
701,26	26,219
701,44	26,102
701,63	26,876
701,81	27,389
701,99	26,767
702,18	26,225
702,36	26,160
702,54	29,016
702,73	27,639
702,91	25,929
703,09	26,363
703,28	25,254
703,46	26,783
703,64	27,538
703,83	28,469
704,01	26,899
704,19	27,737
704,38	25,655
704,56	27,243
704,74	27,557
704,93	25,934
705,11	26,026
705,29	26,478
705,48	29,726
705,66	27,187
705,84	26,347
706,03	25,143
706,21	25,301
706,39	27,240
706,58	25,403
706,76	26,947
706,94	27,626
707,12	26,733
707,31	25,728
707,49	25,632
707,67	25,559
707,86	28,631
708,04	27,412
708,22	26,034
708,41	27,997
708,59	25,242
708,77	28,244
708,95	25,789
709,14	29,285
709,32	27,625
709,50	25,022
709,69	27,631
709,87	25,848
710,05	25,303
710,23	25,571
710,42	25,425
710,60	26,957
710,78	28,744
710,97	27,727
711,15	26,457
711,33	26,089
711,51	26,879
711,70	25,693
711,88	27,492
712,06	28,151
712,24	28,265
712,43	26,170
712,61	26,069
712,79	26,044
712,97	25,558
713,16	26,456
713,34	24,237
713,52	28,980
713,70	26,080
713,89	25,892
714,07	25,915
714,25	27,478
714,43	27,831
714,62	25,194
714,80	25,577
714,98	24,524
715,16	25,383
715,35	25,032
715,53	27,091
715,71	30,051
715,89	29,939
716,07	27,691
716,26	27,142
716,44	28,323
716,62	27,693
716,80	26,945
716,99	25,997
717,17	30,055
717,35	27,290
717,53	25,925
717,71	25,632
717,90	27,705
718,08	28,527
718,26	26,641
718,44	28,569
718,62	27,907
718,81	27,192
718,99	25,173
719,17	26,381
719,35	27,262
719,53	25,958
719,72	25,059
719,90	25,691
720,08	25,800
720,26	29,855
720,44	24,435
720,62	25,074
720,81	29,261
720,99	29,332
721,17	26,855
721,35	27,618
721,53	24,295
721,72	30,060
721,90	26,004
722,08	26,382
722,26	27,001
722,44	27,373
722,62	24,807
722,81	25,666
722,99	26,413
723,17	25,740
723,35	26,697
723,53	26,661
723,71	27,934
723,89	29,997
724,08	27,093
724,26	25,924
724,44	28,356
724,62	28,097
724,80	22,434
724,98	26,170
725,16	29,627
725,35	27,725
725,53	26,449
725,71	26,934
725,89	26,114
726,07	31,582
726,25	30,510
726,43	24,120
726,61	26,636
726,80	27,158
726,98	26,139
727,16	24,993
727,34	27,425
727,52	24,929
727,70	27,672
727,88	26,152
728,06	23,575
728,25	25,487
728,43	24,497
728,61	26,611
728,79	26,058
728,97	29,082
729,15	25,574
729,33	28,717
729,51	28,853
729,69	27,644
729,87	27,198
730,06	27,746
730,24	28,875
730,42	30,730
730,60	26,566
730,78	27,761
730,96	26,962
731,14	27,641
731,32	26,440
731,50	25,518
731,68	24,245
731,86	28,839
732,04	26,998
732,22	26,139
732,41	34,498
732,59	26,353
732,77	26,981
732,95	26,460
733,13	28,104
733,31	28,976
733,49	24,724
733,67	27,183
733,85	28,559
734,03	26,227
734,21	25,613
734,39	27,883
734,57	27,062
734,75	29,932
734,93	24,728
735,11	27,635
735,29	24,881
735,47	28,402
735,65	23,667
735,84	25,526
736,02	25,335
736,20	28,931
736,38	24,525
736,56	28,195
736,74	27,294
736,92	25,444
737,10	25,555
737,28	27,327
737,46	26,586
737,64	27,465
737,82	26,333
738,00	27,534
738,18	27,703
738,36	27,012
738,54	26,068
738,72	26,714
738,90	27,849
739,08	27,601
739,26	25,903
739,44	26,633
739,62	29,961
739,80	26,972
739,98	26,279
740,16	26,961
740,34	26,521
740,52	30,805
740,70	25,909
740,88	26,103
741,06	27,000
741,24	27,554
741,42	26,493
741,60	27,294
741,78	27,790
741,96	28,187
742,14	26,654
742,32	27,457
742,50	26,376
742,68	26,609
742,86	26,778
743,04	25,087
743,21	28,518
743,39	27,069
743,57	26,857
743,75	28,223
743,93	24,279
744,11	24,125
744,29	25,914
744,47	23,960
744,65	26,548
744,83	26,006
745,01	24,575
745,19	24,255
745,37	30,627
745,55	28,523
745,73	28,785
745,91	25,669
746,09	26,452
746,27	25,671
746,45	26,527
746,62	26,321
746,80	25,566
746,98	26,646
747,16	23,742
747,34	25,803
747,52	26,688
747,70	27,160
747,88	27,114
748,06	28,322
748,24	27,191
748,42	28,786
748,60	25,735
748,78	23,354
748,95	29,725
749,13	30,771
749,31	26,108
749,49	27,431
749,67	27,132
749,85	28,116
750,03	27,198
750,21	25,923
750,39	27,921
750,57	23,904
750,74	27,924
750,92	26,030
751,10	28,119
751,28	24,831
751,46	27,086
751,64	27,322
751,82	29,260
752,00	29,204
752,17	28,332
752,35	28,792
752,53	27,773
752,71	26,975
752,89	26,953
753,07	24,970
753,25	26,302
753,43	25,258
753,60	27,925
753,78	28,555
753,96	28,162
754,14	27,852
754,32	29,812
754,50	27,523
754,68	28,443
754,85	25,157
755,03	28,045
755,21	30,350
755,39	30,568
755,57	27,490
755,75	27,723
755,92	27,900
756,10	27,496
756,28	26,371
756,46	26,612
756,64	27,717
756,82	27,733
756,99	27,109
757,17	24,466
757,35	26,072
757,53	31,517
757,71	30,422
757,89	26,014
758,06	28,012
758,24	28,707
758,42	28,161
758,60	23,974
758,78	26,245
758,95	28,730
759,13	27,443
759,31	28,539
759,49	25,582
759,67	28,872
759,84	26,091
760,02	27,777
760,20	25,919
760,38	28,537
760,56	23,979
760,73	27,699
760,91	26,802
761,09	30,252
761,27	24,321
761,45	26,879
761,62	22,388
761,80	24,536
761,98	27,410
762,16	30,397
762,33	24,701
762,51	28,643
762,69	25,364
762,87	27,626
763,05	28,235
763,22	26,295
763,40	26,987
763,58	27,007
763,76	27,121
763,93	28,029
764,11	30,392
764,29	27,234
764,47	28,198
764,64	28,272
764,82	29,205
765,00	26,439
765,18	23,550
765,35	27,189
765,53	26,337
765,71	29,163
765,89	26,564
766,06	27,001
766,24	28,745
766,42	27,338
766,60	25,964
766,77	26,486
766,95	26,176
767,13	26,505
767,30	26,857
767,48	25,381
767,66	25,849
767,84	24,779
768,01	26,767
768,19	27,123
768,37	26,604
768,54	26,664
768,72	27,215
768,90	27,484
769,08	28,459
769,25	25,557
769,43	25,917
769,61	25,761
769,78	26,404
769,96	25,409
770,14	28,177
770,31	28,911
770,49	31,319
770,67	25,619
770,85	26,343
771,02	27,626
771,20	26,704
771,38	27,502
771,55	25,454
771,73	23,246
771,91	26,953
772,08	27,363
772,26	26,412
772,44	28,283
772,61	27,723
772,79	26,221
772,97	24,680
773,14	24,554
773,32	27,728
773,50	26,254
773,67	28,412
773,85	27,366
774,03	29,418
774,20	25,958
774,38	26,770
774,56	26,909
774,73	24,738
774,91	24,985
775,09	25,239
775,26	26,035
775,44	28,341
775,61	27,520
775,79	26,732
775,97	27,278
776,14	27,157
776,32	27,324
776,50	26,306
776,67	28,250
776,85	28,632
777,03	25,126
777,20	27,443
777,38	28,316
777,55	28,469
777,73	26,212
777,91	25,148
778,08	25,048
778,26	25,328
778,43	28,152
778,61	26,087
778,79	23,969
778,96	28,247
779,14	25,549
779,32	26,127
779,49	25,751
779,67	31,366
779,84	27,064
780,02	28,046
780,20	25,470
780,37	28,622
780,55	23,099
780,72	25,271
780,90	26,357
781,07	29,206
781,25	28,783
781,43	28,153
781,60	25,826
781,78	29,058
781,95	28,072
782,13	27,471
782,30	27,318
782,48	27,733
782,66	26,818
782,83	26,077
783,01	34,295
783,18	29,341
783,36	29,504
783,53	29,847
783,71	24,460
783,89	26,852
784,06	28,249
784,24	27,102
784,41	27,513
784,59	23,160
784,76	32,448
784,94	24,539
785,11	27,906
785,29	27,220
785,46	27,355
785,64	26,695
785,82	29,791
785,99	30,392
786,17	28,969
786,34	26,456
786,52	31,462
786,69	28,235
786,87	28,556
787,04	28,047
787,22	24,863
787,39	27,451
787,57	30,803
787,74	25,425
787,92	32,905
788,09	30,291
788,27	29,472
788,44	26,518
788,62	30,011
788,79	25,182
788,97	26,575
789,14	28,073
789,32	27,082
789,49	26,526
789,67	29,201
789,84	26,371
790,02	30,159
790,19	23,412
790,37	28,324
790,54	27,930
790,72	31,040
790,89	29,037
791,07	29,932
791,24	23,659
791,42	27,570
791,59	30,910
791,77	25,676
791,94	25,437
792,12	26,028
792,29	28,611
792,47	29,669
792,64	28,348
792,81	29,992
792,99	24,794
793,16	25,841
793,34	28,115
793,51	28,735
793,69	29,754
793,86	27,074
794,04	28,165
794,21	29,885
794,39	24,962
794,56	27,259
794,73	29,314
794,91	31,734
795,08	29,199
795,26	29,412
795,43	24,610
795,61	33,208
795,78	25,096
795,95	29,945
796,13	27,709
796,30	29,903
796,48	25,521
796,65	26,468
796,83	32,218
797,00	31,050
797,17	27,380
797,35	24,574
797,52	29,048
797,70	29,624
797,87	29,096
798,04	30,438
798,22	26,405
798,39	27,152
798,57	28,422
798,74	29,685
798,91	24,664
799,09	26,966
799,26	31,284
799,44	30,491
799,61	23,930
799,78	26,895
799,96	30,116
800,13	24,488
800,31	31,151
800,48	31,993
800,65	33,361
800,83	28,576
801,00	29,408
801,17	27,185
801,35	31,346
801,52	30,775
801,70	32,768
801,87	25,191
802,04	30,915
802,22	23,174
802,39	27,407
802,56	32,559
802,74	30,351
802,91	27,166
803,08	26,782
803,26	30,422
803,43	33,218
803,61	23,687
803,78	26,136
803,95	30,759
804,13	28,894
804,30	23,825
804,47	30,330
804,65	30,080
804,82	27,900
804,99	30,935
805,17	25,152
805,34	36,544
805,51	32,096
805,69	28,827
805,86	32,033
806,03	33,994
806,21	31,176
806,38	32,284
806,55	27,815
806,72	33,575
806,90	33,251
807,07	30,466
807,24	26,322
807,42	27,053
807,59	30,614
807,76	25,198
807,94	27,064
808,11	31,605
808,28	37,008
808,45	30,013
808,63	26,764
808,80	33,331
808,97	26,749
809,15	29,370
809,32	29,481
809,49	30,451
809,67	33,670
809,84	33,993
810,01	33,055
810,18	41,786
810,36	34,742
810,53	28,939
810,70	31,053
810,87	30,747
811,05	34,405
811,22	29,031
811,39	27,813
811,57	33,505
811,74	29,275
811,91	32,353
812,08	27,810
812,26	26,264
812,43	24,858
812,60	38,503
812,77	30,523
812,95	32,332
813,12	29,227
813,29	30,388
813,46	29,372
813,64	33,516
813,81	32,287
813,98	30,236
814,15	29,438
814,32	38,061
814,50	31,817
814,67	26,768
814,84	36,407
815,01	30,917
815,19	24,692
815,36	28,811
815,53	29,016
815,70	30,868
815,87	35,967
816,05	30,306
816,22	34,910
816,39	34,642
816,56	33,390
816,74	33,600
816,91	32,390
817,08	34,392
817,25	33,796
817,42	34,883
817,60	34,047
817,77	33,554
817,94	26,773
818,11	30,312
818,28	24,697
818,45	32,643
818,63	29,925
818,80	29,167
818,97	29,611
819,14	36,656
819,31	38,529
819,49	32,506
819,66	27,614
819,83	36,006
820,00	33,875
820,17	29,252
820,34	32,376
820,52	32,967
820,69	33,034
820,86	32,114
821,03	31,566
821,20	31,945
821,37	37,330
821,55	36,187
821,72	25,611
821,89	34,214
822,06	36,757
822,23	25,985
822,40	28,144
822,57	39,162
822,75	35,667
822,92	23,603
823,09	32,006
823,26	35,457
823,43	39,050
823,60	31,321
823,77	29,498
823,94	34,340
824,12	36,374
824,29	28,987
824,46	34,633
824,63	47,026
824,80	35,942
824,97	29,311
825,14	31,431
825,31	33,331
825,49	32,888
825,66	15,733
825,83	31,183
826,00	30,967
826,17	45,270
826,34	36,994
826,51	31,118
826,68	31,197
826,85	29,670
827,02	26,158
827,20	30,307
827,37	28,876
827,54	34,981
827,71	32,579
827,88	34,491
828,05	34,600
828,22	37,764
828,39	30,108
828,56	33,588
828,73	34,065
828,90	33,665
829,07	32,586
829,25	29,296
829,42	29,639
829,59	28,642
829,76	28,580
829,93	33,261
830,10	35,257
830,27	33,459
830,44	28,962
830,61	22,821
830,78	43,850
830,95	31,294
831,12	34,585
831,29	29,720
831,46	25,653
831,63	27,894
831,80	37,522
831,97	27,962
832,14	39,762
832,31	43,081
832,48	27,692
832,65	33,508
832,83	31,051
833,00	38,675
833,17	32,390
833,34	29,827
833,51	39,427
833,68	41,095
833,85	34,406
834,02	29,278
834,19	34,899
834,36	34,822
834,53	26,546
834,70	31,616
834,87	44,232
835,04	35,911
835,21	31,324
835,38	32,364
835,55	26,086
835,72	49,626
835,89	30,172
836,06	28,655
836,23	46,491
836,40	30,332
836,57	31,641
836,74	36,935
836,91	29,315
837,08	47,298
837,25	31,076
837,42	29,903
837,59	25,563
837,76	36,420
837,93	34,768
838,09	37,203
838,26	31,493
838,43	44,561
838,60	42,314
838,77	36,910
838,94	35,816
839,11	49,174
839,28	44,279
839,45	34,275
839,62	32,810
839,79	32,855
839,96	30,603
840,13	35,884
840,30	27,530
840,47	36,787
840,64	36,223
840,81	33,492
840,98	34,089
841,15	43,950
841,32	29,089
841,48	38,214
841,65	36,964
841,82	30,830
841,99	40,153
842,16	36,132
842,33	33,196
842,50	37,138
842,67	20,528
842,84	33,256
843,01	43,111
843,18	32,537
843,35	38,617
843,52	30,995
843,68	37,401
843,85	33,617
844,02	26,066
844,19	30,282
844,36	33,390
844,53	28,477
844,70	17,762
844,87	48,392
845,04	33,730
845,21	21,111
845,37	44,213
845,54	37,303
845,71	34,137
845,88	58,234
846,05	33,308
846,22	16,440
846,39	36,736
846,56	39,123
846,72	23,666
846,89	33,622
847,06	54,256
847,23	42,677
847,40	23,587
847,57	32,462
847,74	31,855
847,90	48,790
848,07	37,443
848,24	33,662
848,41	43,866
848,58	58,373
848,75	29,535
848,92	26,502
849,08	33,138
849,25	30,935
849,42	24,242
849,59	38,767
849,76	24,092
849,93	44,226
850,09	39,427
850,26	21,680
850,43	51,840
850,60	27,434
850,77	18,765
850,94	37,942
851,10	36,936
851,27	33,816
851,44	38,472
851,61	31,488
851,78	51,953
851,95	43,901
852,11	30,981
852,28	24,678
852,45	45,467
852,62	48,429
852,79	39,143
852,95	29,193
853,12	42,390
853,29	32,358
853,46	36,514
853,63	38,138
853,79	30,433
853,96	35,430
854,13	45,106
854,30	33,652
854,46	51,224
854,63	33,870
854,80	33,386
854,97	38,448
855,14	71,157
855,30	49,100
855,47	42,261
855,64	40,865
855,81	30,401
855,97	54,216
856,14	39,906
856,31	21,649
856,48	58,661
856,65	56,815
856,81	38,886
856,98	30,674
857,15	28,845
857,32	49,619
857,48	30,204
857,65	66,147
857,82	51,491
857,99	48,500
858,15	46,934
858,32	36,450
858,49	32,248
858,65	74,715
858,82	38,635
858,99	45,778
859,16	49,118
859,32	49,254
859,49	43,386
859,66	45,920
859,83	44,120
859,99	36,288
860,16	28,918
860,33	33,357
860,49	51,849
860,66	34,608
860,83	35,817
861,00	44,748
861,16	64,418
861,33	50,756
861,50	16,046
861,66	49,013
861,83	53,416
862,00	37,278
862,16	29,763
862,33	47,597
862,50	83,848
862,67	52,658
862,83	37,966
863,00	47,750
863,17	60,597
863,33	46,021
863,50	23,959
863,67	45,912
863,83	52,784
864,00	53,370
864,17	36,498
864,33	22,706
864,50	31,563
864,67	47,523
864,83	30,292
865,00	45,083
865,17	34,535
865,33	59,495
865,50	34,903
865,67	55,682
865,83	43,103
866,00	56,021
866,17	53,076
866,33	47,830
866,50	49,542
866,66	39,223
866,83	33,985
867,00	62,744
867,16	80,350
867,33	75,259
867,50	42,793
867,66	56,409
867,83	52,236
868,00	57,709
868,16	53,338
868,33	40,698
868,49	31,827
868,66	58,465
868,83	47,710
868,99	73,686
869,16	84,998
869,32	72,983
869,49	48,591
869,66	46,140
869,82	68,581
869,99	70,782
870,15	40,879
870,32	53,587
870,49	105,868
870,65	75,133
870,82	48,271
870,98	40,544
871,15	100,754
871,32	68,239
871,48	56,274
871,65	49,194
871,81	55,085
871,98	51,827
872,15	42,605
872,31	24,674
872,48	79,319
872,64	55,007
872,81	56,397
872,97	49,982
873,14	88,584
873,31	83,266
873,47	45,123
873,64	75,281
873,80	89,033
873,97	91,298
874,13	79,495
874,30	33,316
874,46	57,586
874,63	78,551
874,80	37,456
874,96	50,192
875,13	70,658
875,29	39,706
875,46	76,135
875,62	44,884
875,79	104,599
875,95	47,655
876,12	12,396
876,28	29,775
876,45	119,513
876,61	32,011
876,78	27,743
876,94	5,039
877,11	61,936
877,27	185,329
877,44	65,897
877,60	35,609
877,77	77,142
877,94	140,046
878,10	50,776
878,27	73,550
878,43	140,446
878,60	31,589
878,76	71,083
878,93	72,586
879,09	54,160
879,26	104,886
879,42	50,598
879,58	67,775
879,75	112,096
879,91	121,978
880,08	53,362
880,24	62,203
880,41	35,404
880,57	84,113
880,74	143,208
880,90	56,526
881,07	80,339
881,23	124,687
881,40	59,327
881,56	37,546
881,73	163,580
881,89	108,325
882,06	45,857
882,22	149,635
882,38	127,550
882,55	146,904
882,71	77,840
882,88	44,724
883,04	48,819
883,21	115,213
883,37	141,777
883,54	73,673
883,70	235,780
883,86	127,590
884,03	116,783
884,19	102,741
884,36	192,330
884,52	131,606
884,69	102,130
884,85	87,273
885,01	76,150
885,18	122,901
885,34	78,798
885,51	24,427
885,67	94,143
>>>>> Data<<<<< Espectral Procesado Extremo
