Fichero De Datos De SpectraSuite
++++++++++++++++++++++++++++++++++++
Fecha: Wed Apr 22 09:03:53 CEST 2009
Usuario: evoflor
Presente Oscuro Del Espectro: Sí
La Referencia de Presente Del Espectro De: Sí
Muestreados de los componentes de Número de espectros: 1
Espectrómetros: USB4F02353
Tiempo de integración (usec): 500000 (USB4F02353)
Promedio de Espectros Hechos un: 5 (USB4F02353)
El Alisar Del Furgón: 0 (USB4F02353)
Párrafo de de Corregir del la del del de Eléctrica del obscuridad: Sí (USB4F02353)
Estrobo/Lámpara Permitido: No (USB4F02353)
Correct for Detector Non-linearity: No (USB4F02353)
Párrafo de de Corregir del la del del de Externa del luz: No (USB4F02353)
Procesado del espectro de Número de pixeles en: 3648
>>>>> Comienza Data<<<<< Espectral Procesado Del EL
177,79	737,467
178,00	737,467
178,22	737,467
178,44	-9052,203
178,66	566,007
178,88	182,816
179,09	6354,499
179,31	188,544
179,53	-6723,192
179,75	491,942
179,96	62,120
180,18	325,410
180,40	-325,409
180,62	-145,630
180,83	185,849
181,05	-1007,224
181,27	-671,345
181,49	253,639
181,70	-320,947
181,92	464,304
182,14	160,044
182,36	-1075,762
182,58	222,884
182,79	-1102,348
183,01	-16778,669
183,23	424,831
183,45	-119,000
183,66	90,908
183,88	785,039
184,10	653,037
184,32	1259,649
184,53	-315,049
184,75	590,164
184,97	-246,655
185,18	1256,517
185,40	250,581
185,62	-1138,173
185,84	296,262
186,05	3008,025
186,27	-5937,887
186,49	-1459,327
186,71	197,236
186,92	507,976
187,14	1897,485
187,36	292,626
187,58	774,262
187,79	-932,705
188,01	-1053,945
188,23	77,982
188,45	212,045
188,66	-19,675
188,88	208,842
189,10	-341,879
189,31	-94,521
189,53	237,273
189,75	1201,508
189,97	129,801
190,18	1070,048
190,40	1381,439
190,62	142,761
190,83	445,314
191,05	-325,185
191,27	6368,893
191,49	573,023
191,70	582,268
191,92	541,729
192,14	349,632
192,35	-1843,674
192,57	-1100,359
192,79	-1934,444
193,01	773,146
193,22	120,742
193,44	-719,196
193,66	388,949
193,87	976,415
194,09	233,298
194,31	209,291
194,53	-304,403
194,74	255,370
194,96	-135,609
195,18	718,952
195,39	-1213,680
195,61	-404,746
195,83	2197,345
196,04	354,104
196,26	225,438
196,48	1280,716
196,70	605,006
196,91	189,401
197,13	-118,798
197,35	288,441
197,56	-695,149
197,78	4389,372
198,00	363,709
198,21	339,128
198,43	1016,397
198,65	197,573
198,86	63,719
199,08	787,865
199,30	342,637
199,51	1055,369
199,73	-1821,028
199,95	261,740
200,16	494,960
200,38	180,262
200,60	3579,441
200,81	-635,134
201,03	4420,574
201,25	748,432
201,46	-535,956
201,68	284,908
201,90	595,705
202,11	296,515
202,33	106,565
202,55	156,309
202,76	642,143
202,98	908,874
203,20	274,207
203,41	-1061,835
203,63	698,550
203,85	258,799
204,06	-727,080
204,28	210,609
204,50	-370,036
204,71	381,063
204,93	-5,436
205,15	244,525
205,36	-206,660
205,58	-2267,311
205,80	-1847,197
206,01	-4097,652
206,23	249,169
206,45	383,392
206,66	383,943
206,88	-600,822
207,10	2175,804
207,31	-34727,815
207,53	342,060
207,75	21,466
207,96	390,462
208,18	356,790
208,39	297,242
208,61	838,169
208,83	8841,658
209,04	447,099
209,26	613,995
209,48	127,682
209,69	-174,586
209,91	1059,457
210,13	24,081
210,34	178,082
210,56	349,130
210,77	1903,268
210,99	325,323
211,21	-326,632
211,42	204,522
211,64	861,098
211,86	523,106
212,07	239,736
212,29	778,808
212,50	1363,769
212,72	200,632
212,94	627,371
213,15	77,006
213,37	531,134
213,58	238,413
213,80	408,490
214,02	3415,212
214,23	344,439
214,45	265,178
214,67	71,461
214,88	-254,067
215,10	1078,997
215,31	-168,030
215,53	72,169
215,75	301,109
215,96	465,289
216,18	195,663
216,39	315,765
216,61	497,476
216,83	1151,477
217,04	421,863
217,26	89,499
217,47	459,079
217,69	468,047
217,91	110,328
218,12	1567,515
218,34	80,558
218,55	242,767
218,77	-12,952
218,99	159,922
219,20	188,417
219,42	504,686
219,63	96,458
219,85	241,581
220,06	-194,141
220,28	146,438
220,50	47,714
220,71	139,042
220,93	570,123
221,14	418,193
221,36	140,064
221,58	118,870
221,79	145,237
222,01	161,294
222,22	191,421
222,44	97,481
222,65	170,396
222,87	16,917
223,09	100,416
223,30	118,295
223,52	461,461
223,73	82,647
223,95	103,016
224,16	103,468
224,38	115,896
224,60	83,282
224,81	-106,219
225,03	63,365
225,24	81,338
225,46	-11,990
225,67	17,097
225,89	48,087
226,10	104,838
226,32	176,391
226,54	-19,716
226,75	18,347
226,97	133,550
227,18	102,001
227,40	58,619
227,61	35,264
227,83	52,236
228,04	102,216
228,26	51,206
228,47	12,068
228,69	93,552
228,91	46,139
229,12	107,492
229,34	28,423
229,55	59,516
229,77	41,327
229,98	32,548
230,20	38,215
230,41	-12,555
230,63	83,606
230,84	43,595
231,06	66,124
231,27	-7,842
231,49	43,348
231,71	17,802
231,92	17,848
232,14	-1,682
232,35	32,116
232,57	4,099
232,78	15,611
233,00	20,418
233,21	23,145
233,43	24,418
233,64	3,576
233,86	30,786
234,07	31,777
234,29	12,269
234,50	13,330
234,72	34,901
234,93	21,422
235,15	1,980
235,36	18,105
235,58	41,453
235,79	27,911
236,01	9,433
236,22	17,925
236,44	47,563
236,65	17,618
236,87	16,473
237,08	13,276
237,30	-3,954
237,51	26,653
237,73	11,347
237,94	9,529
238,16	17,526
238,37	2,430
238,59	8,825
238,80	8,371
239,02	-0,638
239,23	22,977
239,45	11,994
239,66	27,751
239,88	20,931
240,09	20,638
240,31	3,902
240,52	2,425
240,74	16,386
240,95	12,415
241,17	13,546
241,38	5,743
241,60	-2,690
241,81	21,854
242,03	-3,425
242,24	13,565
242,46	12,515
242,67	-1,228
242,89	12,972
243,10	6,762
243,32	12,188
243,53	14,675
243,75	7,267
243,96	14,107
244,18	10,219
244,39	18,433
244,60	-1,325
244,82	9,389
245,03	12,423
245,25	7,608
245,46	24,641
245,68	5,860
245,89	25,634
246,11	21,110
246,32	7,121
246,54	10,255
246,75	8,819
246,97	20,406
247,18	18,605
247,39	7,218
247,61	14,821
247,82	8,918
248,04	2,312
248,25	5,203
248,47	11,305
248,68	11,130
248,90	6,732
249,11	9,199
249,33	15,062
249,54	11,343
249,75	8,791
249,97	0,575
250,18	15,663
250,40	15,471
250,61	4,609
250,83	4,245
251,04	6,554
251,25	13,423
251,47	10,647
251,68	5,540
251,90	5,650
252,11	7,381
252,33	5,233
252,54	6,390
252,76	0,505
252,97	-1,822
253,18	6,340
253,40	9,065
253,61	2,404
253,83	7,009
254,04	5,277
254,25	3,259
254,47	0,041
254,68	8,424
254,90	3,076
255,11	2,819
255,33	9,286
255,54	3,803
255,75	5,245
255,97	4,595
256,18	5,246
256,40	7,575
256,61	8,363
256,82	2,689
257,04	10,200
257,25	2,562
257,47	8,112
257,68	9,364
257,89	5,866
258,11	5,998
258,32	9,982
258,54	3,418
258,75	14,621
258,96	10,026
259,18	6,706
259,39	2,610
259,61	12,495
259,82	3,608
260,03	1,344
260,25	5,902
260,46	6,344
260,68	0,894
260,89	2,459
261,10	11,378
261,32	5,847
261,53	-0,326
261,75	8,581
261,96	3,665
262,17	19,414
262,39	8,644
262,60	-0,322
262,81	4,995
263,03	13,060
263,24	9,166
263,46	2,903
263,67	6,004
263,88	6,670
264,10	4,251
264,31	6,904
264,52	4,850
264,74	7,079
264,95	4,616
265,17	8,757
265,38	6,930
265,59	8,404
265,81	7,488
266,02	1,199
266,23	0,169
266,45	13,275
266,66	10,954
266,87	5,657
267,09	2,537
267,30	8,831
267,52	10,398
267,73	6,470
267,94	3,031
268,16	7,600
268,37	3,382
268,58	7,305
268,80	-0,425
269,01	7,641
269,22	9,969
269,44	5,109
269,65	4,902
269,86	2,026
270,08	8,826
270,29	0,759
270,50	3,706
270,72	5,617
270,93	4,005
271,14	2,857
271,36	2,436
271,57	7,636
271,78	7,320
272,00	4,222
272,21	8,605
272,42	3,760
272,64	9,671
272,85	1,815
273,06	0,294
273,28	6,857
273,49	1,717
273,70	5,516
273,92	7,786
274,13	1,709
274,34	-0,503
274,56	8,816
274,77	4,268
274,98	12,786
275,20	8,671
275,41	8,300
275,62	1,706
275,84	6,164
276,05	14,665
276,26	3,182
276,47	5,041
276,69	8,183
276,90	8,952
277,11	5,642
277,33	1,287
277,54	10,045
277,75	5,494
277,97	0,833
278,18	2,782
278,39	8,327
278,61	0,993
278,82	10,653
279,03	6,553
279,24	1,724
279,46	5,897
279,67	9,220
279,88	5,491
280,10	9,849
280,31	3,071
280,52	0,864
280,73	1,583
280,95	8,056
281,16	7,191
281,37	5,929
281,59	6,285
281,80	7,461
282,01	2,292
282,22	1,416
282,44	6,251
282,65	11,333
282,86	5,788
283,08	1,368
283,29	3,469
283,50	0,507
283,71	5,618
283,93	3,224
284,14	-0,080
284,35	6,042
284,56	5,223
284,78	-1,320
284,99	5,425
285,20	10,478
285,42	3,443
285,63	1,922
285,84	1,789
286,05	4,423
286,27	3,252
286,48	8,245
286,69	8,041
286,90	3,042
287,12	2,369
287,33	1,945
287,54	3,591
287,75	10,304
287,97	3,847
288,18	4,181
288,39	4,334
288,60	4,951
288,82	2,831
289,03	2,078
289,24	6,244
289,45	7,388
289,67	5,148
289,88	2,308
290,09	6,633
290,30	3,456
290,52	2,432
290,73	0,044
290,94	3,696
291,15	3,883
291,37	6,475
291,58	3,334
291,79	6,033
292,00	3,586
292,21	4,345
292,43	8,038
292,64	1,747
292,85	4,526
293,06	6,790
293,28	3,341
293,49	3,527
293,70	8,157
293,91	2,101
294,12	4,609
294,34	4,529
294,55	6,430
294,76	5,748
294,97	5,531
295,19	4,973
295,40	4,015
295,61	3,675
295,82	6,087
296,03	4,643
296,25	5,190
296,46	1,636
296,67	1,937
296,88	4,331
297,09	2,924
297,31	2,237
297,52	4,798
297,73	2,769
297,94	3,135
298,15	6,144
298,37	3,149
298,58	2,966
298,79	4,752
299,00	-0,621
299,21	4,756
299,43	2,654
299,64	10,948
299,85	1,392
300,06	1,820
300,27	1,700
300,49	7,703
300,70	7,593
300,91	3,554
301,12	4,115
301,33	8,842
301,54	2,295
301,76	5,597
301,97	3,256
302,18	6,221
302,39	7,330
302,60	1,979
302,82	2,631
303,03	9,070
303,24	3,681
303,45	5,386
303,66	5,776
303,87	0,989
304,09	5,872
304,30	1,258
304,51	2,861
304,72	1,887
304,93	6,125
305,14	3,167
305,36	4,207
305,57	0,883
305,78	7,558
305,99	3,834
306,20	5,377
306,41	1,677
306,62	2,215
306,84	1,377
307,05	4,225
307,26	3,422
307,47	10,776
307,68	2,822
307,89	3,322
308,11	4,817
308,32	5,306
308,53	3,495
308,74	1,766
308,95	2,793
309,16	9,318
309,37	5,079
309,59	1,384
309,80	3,617
310,01	5,376
310,22	5,233
310,43	5,360
310,64	6,152
310,85	4,901
311,06	3,210
311,28	2,996
311,49	3,585
311,70	6,679
311,91	4,403
312,12	1,787
312,33	3,396
312,54	4,930
312,75	7,618
312,97	2,891
313,18	7,172
313,39	-0,095
313,60	3,727
313,81	3,798
314,02	6,414
314,23	7,499
314,44	2,908
314,65	0,770
314,87	0,780
315,08	3,709
315,29	3,743
315,50	5,907
315,71	10,876
315,92	7,100
316,13	1,281
316,34	3,959
316,55	6,956
316,77	1,381
316,98	1,159
317,19	3,386
317,40	7,167
317,61	6,830
317,82	7,189
318,03	2,182
318,24	4,891
318,45	9,250
318,66	5,037
318,87	1,983
319,09	3,778
319,30	5,853
319,51	8,422
319,72	4,198
319,93	4,954
320,14	8,140
320,35	7,705
320,56	1,581
320,77	4,875
320,98	9,006
321,19	6,747
321,40	5,326
321,62	2,970
321,83	-0,439
322,04	7,024
322,25	6,189
322,46	7,527
322,67	6,620
322,88	7,521
323,09	4,349
323,30	9,941
323,51	9,581
323,72	4,589
323,93	2,362
324,14	4,933
324,35	-0,500
324,56	2,898
324,77	4,026
324,99	3,520
325,20	1,163
325,41	5,773
325,62	4,150
325,83	-1,686
326,04	1,972
326,25	4,523
326,46	0,275
326,67	5,425
326,88	3,489
327,09	2,556
327,30	5,418
327,51	5,140
327,72	3,434
327,93	4,328
328,14	2,649
328,35	5,841
328,56	4,427
328,77	7,384
328,98	5,672
329,19	5,112
329,40	5,554
329,61	2,722
329,82	1,756
330,04	6,792
330,25	4,364
330,46	4,558
330,67	3,091
330,88	7,119
331,09	3,020
331,30	3,814
331,51	5,299
331,72	6,251
331,93	6,978
332,14	2,346
332,35	3,419
332,56	3,641
332,77	6,587
332,98	3,033
333,19	5,638
333,40	4,166
333,61	3,129
333,82	5,383
334,03	4,131
334,24	10,836
334,45	4,212
334,66	5,906
334,87	3,246
335,08	2,691
335,29	3,692
335,50	3,711
335,71	1,304
335,92	8,426
336,13	4,733
336,34	2,912
336,55	3,245
336,76	6,841
336,97	4,041
337,18	4,579
337,39	4,959
337,60	2,939
337,81	2,862
338,02	6,581
338,23	3,424
338,44	4,609
338,65	2,259
338,86	5,246
339,07	7,469
339,28	3,669
339,49	4,754
339,70	0,868
339,91	4,743
340,11	8,412
340,32	3,848
340,53	2,663
340,74	-0,249
340,95	2,485
341,16	4,027
341,37	3,008
341,58	6,194
341,79	3,181
342,00	4,029
342,21	-0,966
342,42	5,178
342,63	7,303
342,84	6,046
343,05	4,585
343,26	9,408
343,47	6,679
343,68	2,498
343,89	2,206
344,10	1,891
344,31	5,914
344,52	7,138
344,73	2,034
344,94	2,889
345,14	5,165
345,35	4,339
345,56	1,580
345,77	1,011
345,98	2,564
346,19	7,832
346,40	6,393
346,61	0,425
346,82	3,763
347,03	9,095
347,24	2,525
347,45	4,561
347,66	6,971
347,87	2,451
348,08	8,074
348,28	3,295
348,49	3,314
348,70	6,633
348,91	5,074
349,12	3,191
349,33	-2,018
349,54	5,836
349,75	7,102
349,96	3,737
350,17	6,810
350,38	1,893
350,59	2,803
350,80	3,271
351,00	1,580
351,21	10,944
351,42	0,646
351,63	3,195
351,84	4,269
352,05	5,953
352,26	4,066
352,47	5,818
352,68	9,004
352,89	2,568
353,09	1,089
353,30	2,277
353,51	1,688
353,72	9,377
353,93	7,423
354,14	4,691
354,35	4,084
354,56	8,840
354,77	4,259
354,98	2,226
355,18	6,242
355,39	10,330
355,60	2,579
355,81	5,431
356,02	4,482
356,23	4,580
356,44	4,952
356,65	4,321
356,85	7,881
357,06	11,492
357,27	3,522
357,48	0,458
357,69	7,525
357,90	5,067
358,11	-1,221
358,32	2,448
358,52	6,600
358,73	2,527
358,94	4,334
359,15	4,973
359,36	7,475
359,57	4,661
359,78	6,743
359,98	3,230
360,19	-0,015
360,40	4,544
360,61	7,970
360,82	5,234
361,03	10,968
361,24	15,092
361,44	2,255
361,65	4,669
361,86	3,251
362,07	5,197
362,28	10,254
362,49	5,053
362,70	5,008
362,90	4,250
363,11	3,901
363,32	1,414
363,53	2,379
363,74	9,082
363,95	8,668
364,15	2,757
364,36	6,832
364,57	2,282
364,78	1,291
364,99	2,687
365,20	5,994
365,40	8,653
365,61	6,676
365,82	5,358
366,03	8,855
366,24	3,791
366,45	0,360
366,65	1,001
366,86	4,088
367,07	6,305
367,28	0,615
367,49	0,943
367,69	7,169
367,90	4,429
368,11	5,640
368,32	5,106
368,53	8,753
368,73	2,511
368,94	4,800
369,15	7,664
369,36	6,179
369,57	5,989
369,78	5,743
369,98	4,707
370,19	8,203
370,40	1,603
370,61	5,698
370,82	6,525
371,02	9,752
371,23	6,052
371,44	3,543
371,65	5,326
371,85	9,603
372,06	1,949
372,27	6,280
372,48	2,489
372,69	8,171
372,89	5,260
373,10	3,354
373,31	4,831
373,52	7,283
373,73	6,945
373,93	7,669
374,14	4,114
374,35	5,790
374,56	4,865
374,76	4,968
374,97	7,102
375,18	8,893
375,39	5,908
375,60	6,641
375,80	4,415
376,01	4,064
376,22	6,344
376,43	4,505
376,63	6,410
376,84	9,214
377,05	5,673
377,26	3,431
377,46	2,187
377,67	3,395
377,88	0,747
378,09	6,260
378,29	6,659
378,50	4,725
378,71	9,253
378,92	3,501
379,12	1,366
379,33	4,698
379,54	5,193
379,75	8,705
379,95	5,631
380,16	6,273
380,37	6,123
380,58	1,933
380,78	7,084
380,99	2,423
381,20	3,831
381,41	7,283
381,61	4,327
381,82	4,478
382,03	6,603
382,24	8,485
382,44	3,905
382,65	6,021
382,86	10,037
383,06	7,652
383,27	4,458
383,48	5,166
383,69	7,840
383,89	3,153
384,10	0,875
384,31	6,665
384,51	10,302
384,72	8,638
384,93	3,906
385,14	2,038
385,34	3,978
385,55	1,713
385,76	1,675
385,96	9,798
386,17	5,295
386,38	2,383
386,59	9,502
386,79	5,371
387,00	11,618
387,21	11,027
387,41	5,288
387,62	5,209
387,83	9,613
388,03	4,566
388,24	5,951
388,45	5,372
388,66	8,049
388,86	7,230
389,07	3,689
389,28	12,907
389,48	6,208
389,69	6,179
389,90	1,014
390,10	4,261
390,31	7,847
390,52	3,824
390,72	4,523
390,93	7,448
391,14	7,928
391,34	7,516
391,55	7,863
391,76	8,581
391,96	11,847
392,17	7,104
392,38	6,100
392,58	6,156
392,79	5,989
393,00	3,067
393,20	5,793
393,41	8,360
393,62	11,810
393,82	3,447
394,03	8,765
394,24	6,395
394,44	11,111
394,65	9,575
394,86	5,128
395,06	13,350
395,27	9,152
395,48	6,723
395,68	6,660
395,89	7,569
396,10	12,932
396,30	5,084
396,51	5,136
396,72	9,667
396,92	4,177
397,13	11,676
397,34	4,418
397,54	8,105
397,75	7,910
397,95	7,438
398,16	7,899
398,37	8,702
398,57	2,033
398,78	5,868
398,99	11,195
399,19	12,516
399,40	16,028
399,60	8,933
399,81	13,197
400,02	14,144
400,22	11,156
400,43	16,090
400,64	7,432
400,84	4,919
401,05	9,755
401,25	11,570
401,46	10,901
401,67	14,951
401,87	9,250
402,08	7,233
402,29	9,680
402,49	17,202
402,70	12,639
402,90	8,262
403,11	12,433
403,32	7,730
403,52	7,021
403,73	8,126
403,93	14,796
404,14	19,271
404,35	9,274
404,55	8,019
404,76	11,771
404,96	11,261
405,17	17,770
405,38	17,133
405,58	10,363
405,79	14,472
405,99	16,806
406,20	12,511
406,40	12,698
406,61	14,067
406,82	14,840
407,02	12,571
407,23	9,971
407,43	13,179
407,64	9,243
407,85	13,720
408,05	8,728
408,26	22,008
408,46	21,456
408,67	12,914
408,87	13,656
409,08	11,825
409,29	21,071
409,49	17,387
409,70	14,363
409,90	16,779
410,11	17,421
410,31	16,731
410,52	17,002
410,72	12,647
410,93	20,484
411,14	17,026
411,34	11,263
411,55	15,565
411,75	18,367
411,96	17,102
412,16	17,157
412,37	13,700
412,57	18,393
412,78	20,244
412,99	15,340
413,19	21,734
413,40	15,379
413,60	15,341
413,81	15,354
414,01	15,855
414,22	15,780
414,42	15,698
414,63	13,924
414,83	14,685
415,04	22,676
415,24	19,328
415,45	14,821
415,65	18,438
415,86	22,106
416,07	17,446
416,27	20,392
416,48	21,073
416,68	26,002
416,89	16,048
417,09	19,833
417,30	24,452
417,50	12,412
417,71	21,780
417,91	20,678
418,12	19,762
418,32	18,705
418,53	13,282
418,73	18,223
418,94	19,259
419,14	23,964
419,35	14,655
419,55	18,085
419,76	20,515
419,96	22,420
420,17	18,176
420,37	20,159
420,58	22,092
420,78	22,089
420,99	18,353
421,19	21,884
421,40	27,065
421,60	25,032
421,81	18,135
422,01	21,729
422,22	22,255
422,42	23,855
422,63	23,686
422,83	22,278
423,04	28,543
423,24	29,664
423,45	20,370
423,65	18,688
423,86	28,255
424,06	25,164
424,27	19,712
424,47	19,720
424,67	18,482
424,88	22,534
425,08	19,323
425,29	24,713
425,49	19,132
425,70	19,786
425,90	21,389
426,11	20,420
426,31	21,460
426,52	22,724
426,72	20,561
426,93	20,638
427,13	27,043
427,33	18,530
427,54	20,599
427,74	23,873
427,95	28,737
428,15	20,437
428,36	20,384
428,56	19,826
428,77	23,765
428,97	27,070
429,18	22,379
429,38	20,951
429,58	22,714
429,79	23,916
429,99	18,165
430,20	22,598
430,40	28,045
430,61	21,452
430,81	22,756
431,01	24,220
431,22	24,915
431,42	22,153
431,63	20,467
431,83	22,815
432,04	27,086
432,24	25,259
432,44	25,413
432,65	23,933
432,85	24,273
433,06	25,235
433,26	20,554
433,47	22,964
433,67	19,328
433,87	24,268
434,08	22,928
434,28	20,629
434,49	22,927
434,69	31,292
434,89	22,161
435,10	21,458
435,30	26,704
435,51	22,696
435,71	20,017
435,91	23,822
436,12	20,104
436,32	23,885
436,53	21,498
436,73	23,901
436,93	23,121
437,14	20,690
437,34	21,568
437,55	19,737
437,75	26,646
437,95	27,454
438,16	18,971
438,36	23,968
438,57	23,496
438,77	19,419
438,97	25,353
439,18	24,645
439,38	22,346
439,58	20,191
439,79	23,919
439,99	17,594
440,20	31,467
440,40	29,559
440,60	26,079
440,81	22,719
441,01	26,003
441,21	26,229
441,42	22,847
441,62	26,480
441,83	23,933
442,03	21,036
442,23	25,885
442,44	23,977
442,64	27,107
442,84	21,767
443,05	26,354
443,25	22,735
443,45	24,900
443,66	24,573
443,86	19,554
444,06	24,927
444,27	23,160
444,47	28,318
444,67	25,982
444,88	23,327
445,08	23,650
445,28	18,197
445,49	23,367
445,69	22,406
445,90	28,263
446,10	29,648
446,30	22,524
446,51	21,404
446,71	25,780
446,91	26,456
447,12	31,263
447,32	23,236
447,52	26,593
447,72	26,278
447,93	23,399
448,13	18,994
448,33	27,507
448,54	26,640
448,74	20,183
448,94	23,592
449,15	30,078
449,35	19,235
449,55	28,181
449,76	25,955
449,96	22,203
450,16	24,496
450,37	21,987
450,57	22,823
450,77	23,972
450,98	23,339
451,18	27,624
451,38	27,288
451,58	26,975
451,79	21,065
451,99	23,588
452,19	29,645
452,40	33,038
452,60	21,595
452,80	29,176
453,00	24,810
453,21	19,359
453,41	27,230
453,61	22,425
453,82	25,689
454,02	20,699
454,22	39,802
454,42	25,327
454,63	24,501
454,83	21,961
455,03	29,681
455,24	22,781
455,44	24,210
455,64	23,821
455,84	24,347
456,05	17,649
456,25	20,188
456,45	22,419
456,65	24,284
456,86	24,762
457,06	26,337
457,26	27,218
457,47	30,675
457,67	23,863
457,87	18,357
458,07	26,346
458,28	27,355
458,48	32,888
458,68	21,965
458,88	31,763
459,09	22,561
459,29	28,623
459,49	18,666
459,69	25,165
459,90	27,541
460,10	25,263
460,30	26,471
460,50	19,976
460,71	27,167
460,91	20,816
461,11	28,282
461,31	28,368
461,52	27,452
461,72	25,029
461,92	21,984
462,12	27,664
462,32	20,788
462,53	23,277
462,73	20,927
462,93	26,130
463,13	26,575
463,34	23,708
463,54	26,855
463,74	23,142
463,94	21,036
464,14	25,259
464,35	21,522
464,55	29,131
464,75	32,177
464,95	26,820
465,16	21,474
465,36	32,727
465,56	22,218
465,76	24,103
465,96	27,815
466,17	24,864
466,37	23,519
466,57	28,842
466,77	26,916
466,97	21,680
467,18	29,498
467,38	28,608
467,58	31,729
467,78	27,584
467,98	27,480
468,19	23,721
468,39	26,819
468,59	22,254
468,79	27,462
468,99	27,665
469,19	23,358
469,40	24,824
469,60	23,297
469,80	21,572
470,00	25,742
470,20	28,452
470,41	21,065
470,61	27,630
470,81	27,511
471,01	25,774
471,21	25,334
471,41	28,629
471,62	28,477
471,82	24,189
472,02	24,970
472,22	25,410
472,42	21,312
472,62	28,187
472,83	20,183
473,03	27,312
473,23	24,798
473,43	29,424
473,63	26,482
473,83	26,756
474,03	25,973
474,24	26,082
474,44	24,139
474,64	23,879
474,84	20,669
475,04	21,545
475,24	28,949
475,45	24,831
475,65	25,753
475,85	30,943
476,05	19,641
476,25	23,638
476,45	27,494
476,65	30,348
476,85	22,436
477,06	26,154
477,26	22,896
477,46	24,827
477,66	27,802
477,86	25,439
478,06	26,174
478,26	31,044
478,46	23,723
478,67	28,921
478,87	22,153
479,07	24,144
479,27	25,116
479,47	22,751
479,67	19,297
479,87	22,213
480,07	26,676
480,28	23,643
480,48	21,605
480,68	26,538
480,88	31,304
481,08	29,728
481,28	26,073
481,48	24,344
481,68	22,996
481,88	20,422
482,08	24,825
482,29	25,048
482,49	21,033
482,69	24,148
482,89	22,512
483,09	30,488
483,29	22,613
483,49	17,912
483,69	23,949
483,89	21,875
484,09	20,668
484,29	20,608
484,50	23,507
484,70	23,768
484,90	22,580
485,10	23,786
485,30	24,302
485,50	28,744
485,70	24,817
485,90	22,256
486,10	20,854
486,30	20,239
486,50	23,293
486,70	20,342
486,90	22,854
487,10	25,933
487,30	22,542
487,51	23,533
487,71	20,561
487,91	22,887
488,11	26,009
488,31	21,337
488,51	22,472
488,71	20,424
488,91	22,493
489,11	22,084
489,31	20,686
489,51	26,119
489,71	22,857
489,91	22,541
490,11	24,724
490,31	24,563
490,51	25,297
490,71	25,765
490,91	21,616
491,11	24,186
491,31	25,553
491,51	22,903
491,72	22,690
491,92	24,731
492,12	27,546
492,32	24,793
492,52	25,092
492,72	23,078
492,92	23,462
493,12	25,187
493,32	22,882
493,52	21,935
493,72	24,759
493,92	22,304
494,12	22,793
494,32	24,390
494,52	22,154
494,72	22,211
494,92	23,434
495,12	25,734
495,32	27,426
495,52	25,349
495,72	24,768
495,92	24,708
496,12	26,567
496,32	25,336
496,52	22,667
496,72	26,759
496,92	26,641
497,12	26,445
497,32	26,130
497,52	24,626
497,72	25,364
497,92	26,322
498,12	24,196
498,32	24,707
498,52	24,361
498,72	23,162
498,92	24,635
499,12	26,192
499,32	21,559
499,52	27,719
499,72	25,050
499,92	27,332
500,12	26,509
500,32	25,090
500,52	26,895
500,72	28,889
500,91	28,203
501,11	26,335
501,31	24,808
501,51	27,011
501,71	28,301
501,91	27,011
502,11	23,134
502,31	26,703
502,51	26,993
502,71	27,928
502,91	22,894
503,11	26,824
503,31	27,332
503,51	21,166
503,71	23,742
503,91	27,691
504,11	23,797
504,31	26,357
504,51	24,968
504,71	31,896
504,91	23,660
505,10	28,307
505,30	25,355
505,50	25,609
505,70	25,656
505,90	27,401
506,10	23,287
506,30	26,671
506,50	25,307
506,70	28,940
506,90	26,107
507,10	24,152
507,30	24,504
507,50	25,639
507,70	26,985
507,89	29,094
508,09	26,442
508,29	25,552
508,49	22,173
508,69	25,407
508,89	25,815
509,09	26,270
509,29	24,971
509,49	28,655
509,69	29,152
509,89	28,614
510,09	26,808
510,28	26,694
510,48	25,438
510,68	25,128
510,88	26,227
511,08	26,353
511,28	25,589
511,48	27,171
511,68	22,587
511,88	31,347
512,07	24,660
512,27	24,801
512,47	24,947
512,67	26,170
512,87	24,454
513,07	28,010
513,27	23,733
513,47	26,429
513,67	24,717
513,86	25,806
514,06	27,069
514,26	26,891
514,46	28,466
514,66	26,557
514,86	26,315
515,06	30,673
515,26	29,174
515,45	24,264
515,65	24,710
515,85	27,351
516,05	24,966
516,25	24,873
516,45	27,794
516,65	24,721
516,84	26,577
517,04	29,675
517,24	27,264
517,44	28,851
517,64	29,063
517,84	29,361
518,04	27,740
518,23	27,802
518,43	30,624
518,63	26,802
518,83	24,072
519,03	26,305
519,23	25,978
519,42	26,458
519,62	26,658
519,82	25,001
520,02	25,611
520,22	27,193
520,42	24,961
520,61	28,511
520,81	26,900
521,01	29,784
521,21	24,493
521,41	25,724
521,61	30,352
521,80	27,146
522,00	25,343
522,20	31,913
522,40	28,027
522,60	26,386
522,79	25,262
522,99	30,281
523,19	23,938
523,39	25,553
523,59	27,198
523,78	28,400
523,98	26,094
524,18	30,801
524,38	20,709
524,58	26,214
524,77	27,296
524,97	28,419
525,17	27,216
525,37	25,882
525,57	31,384
525,76	27,777
525,96	30,221
526,16	25,485
526,36	25,548
526,56	26,049
526,75	27,974
526,95	29,311
527,15	27,240
527,35	27,735
527,55	25,873
527,74	22,914
527,94	24,141
528,14	25,408
528,34	25,963
528,53	25,610
528,73	32,261
528,93	28,772
529,13	24,076
529,32	27,317
529,52	29,499
529,72	26,441
529,92	27,254
530,12	25,009
530,31	27,532
530,51	29,699
530,71	25,250
530,91	33,293
531,10	23,961
531,30	27,175
531,50	24,848
531,70	26,600
531,89	31,019
532,09	24,416
532,29	25,079
532,49	27,648
532,68	25,970
532,88	25,087
533,08	24,670
533,28	26,820
533,47	28,047
533,67	27,221
533,87	26,764
534,06	32,729
534,26	24,015
534,46	24,779
534,66	26,813
534,85	25,943
535,05	24,110
535,25	23,557
535,45	24,485
535,64	29,877
535,84	29,612
536,04	23,102
536,23	26,045
536,43	29,480
536,63	24,183
536,83	27,872
537,02	26,190
537,22	25,005
537,42	26,703
537,61	26,901
537,81	26,040
538,01	27,089
538,20	26,764
538,40	24,260
538,60	25,593
538,80	24,427
538,99	24,600
539,19	23,985
539,39	23,800
539,58	23,942
539,78	22,574
539,98	21,953
540,17	19,440
540,37	25,717
540,57	20,367
540,76	21,809
540,96	16,989
541,16	20,561
541,36	18,591
541,55	17,337
541,75	16,161
541,95	20,638
542,14	15,916
542,34	16,097
542,54	14,491
542,73	18,994
542,93	15,111
543,13	16,198
543,32	15,083
543,52	16,789
543,72	13,884
543,91	18,511
544,11	15,059
544,31	12,054
544,50	15,734
544,70	17,746
544,89	18,427
545,09	19,844
545,29	17,369
545,48	19,560
545,68	15,040
545,88	18,921
546,07	17,145
546,27	19,423
546,47	21,798
546,66	20,599
546,86	21,047
547,06	21,522
547,25	19,316
547,45	20,619
547,64	22,351
547,84	26,432
548,04	24,533
548,23	28,992
548,43	24,281
548,63	25,806
548,82	24,719
549,02	25,780
549,21	22,147
549,41	23,023
549,61	24,485
549,80	22,619
550,00	25,333
550,20	23,744
550,39	24,626
550,59	26,886
550,78	27,256
550,98	23,999
551,18	27,074
551,37	24,450
551,57	23,485
551,76	24,932
551,96	23,906
552,16	24,909
552,35	24,017
552,55	23,039
552,74	23,891
552,94	28,218
553,14	23,524
553,33	25,268
553,53	24,713
553,72	24,052
553,92	27,361
554,12	24,133
554,31	26,091
554,51	24,545
554,70	23,837
554,90	23,937
555,09	30,198
555,29	24,940
555,49	26,826
555,68	28,386
555,88	24,850
556,07	24,328
556,27	30,344
556,46	26,984
556,66	24,613
556,86	31,219
557,05	26,193
557,25	25,473
557,44	23,299
557,64	25,315
557,83	26,788
558,03	26,234
558,22	23,855
558,42	26,319
558,62	27,327
558,81	29,684
559,01	27,740
559,20	28,277
559,40	26,679
559,59	26,606
559,79	23,995
559,98	26,070
560,18	26,758
560,37	27,246
560,57	27,863
560,76	24,172
560,96	23,435
561,16	25,474
561,35	24,994
561,55	27,039
561,74	26,265
561,94	27,639
562,13	28,115
562,33	27,203
562,52	27,292
562,72	25,220
562,91	26,846
563,11	26,325
563,30	27,560
563,50	26,350
563,69	25,763
563,89	25,421
564,08	26,179
564,28	24,113
564,47	24,829
564,67	25,167
564,86	25,470
565,06	23,428
565,25	24,993
565,45	24,173
565,64	29,399
565,84	27,008
566,03	23,244
566,23	26,995
566,42	27,357
566,62	26,139
566,81	24,852
567,01	23,062
567,20	26,420
567,40	25,816
567,59	24,964
567,79	29,514
567,98	28,619
568,18	24,890
568,37	28,485
568,57	26,163
568,76	27,449
568,96	27,593
569,15	24,509
569,35	25,601
569,54	29,604
569,73	26,326
569,93	25,365
570,12	25,681
570,32	28,601
570,51	25,340
570,71	27,590
570,90	27,642
571,10	26,452
571,29	25,738
571,49	24,731
571,68	27,628
571,87	28,260
572,07	27,632
572,26	23,006
572,46	25,712
572,65	25,337
572,85	24,946
573,04	27,055
573,24	25,166
573,43	26,689
573,62	27,473
573,82	27,402
574,01	26,365
574,21	23,960
574,40	25,277
574,60	23,573
574,79	29,931
574,98	26,073
575,18	25,779
575,37	23,968
575,57	25,932
575,76	27,477
575,96	25,570
576,15	27,062
576,34	25,448
576,54	25,976
576,73	27,261
576,93	26,324
577,12	25,996
577,31	26,797
577,51	23,441
577,70	25,824
577,90	25,137
578,09	25,795
578,28	23,460
578,48	24,686
578,67	26,277
578,87	24,991
579,06	24,657
579,25	26,142
579,45	26,962
579,64	23,670
579,84	23,777
580,03	25,686
580,22	26,300
580,42	25,276
580,61	25,766
580,81	25,017
581,00	25,469
581,19	28,146
581,39	24,494
581,58	24,542
581,77	24,551
581,97	27,386
582,16	25,188
582,35	23,866
582,55	25,397
582,74	27,481
582,94	27,376
583,13	25,750
583,32	25,096
583,52	26,968
583,71	25,918
583,90	25,020
584,10	27,952
584,29	25,933
584,48	23,701
584,68	23,882
584,87	26,994
585,06	25,742
585,26	24,078
585,45	25,272
585,65	27,281
585,84	24,849
586,03	24,804
586,23	24,706
586,42	25,564
586,61	28,738
586,81	25,042
587,00	23,577
587,19	25,149
587,39	26,997
587,58	25,509
587,77	24,550
587,97	22,642
588,16	26,352
588,35	24,244
588,54	24,693
588,74	25,734
588,93	27,882
589,12	25,217
589,32	24,902
589,51	24,432
589,70	24,194
589,90	23,262
590,09	23,054
590,28	26,786
590,48	23,317
590,67	27,169
590,86	24,912
591,06	25,558
591,25	27,173
591,44	25,585
591,63	25,024
591,83	26,502
592,02	25,526
592,21	25,792
592,41	26,072
592,60	26,760
592,79	26,500
592,98	25,656
593,18	25,041
593,37	24,556
593,56	25,827
593,76	25,870
593,95	24,249
594,14	25,175
594,33	27,808
594,53	26,374
594,72	23,390
594,91	27,334
595,10	25,392
595,30	25,549
595,49	24,699
595,68	27,334
595,88	27,156
596,07	27,383
596,26	26,983
596,45	25,631
596,65	24,534
596,84	24,942
597,03	26,995
597,22	24,629
597,42	27,252
597,61	24,511
597,80	27,374
597,99	24,837
598,19	28,237
598,38	26,249
598,57	24,721
598,76	28,371
598,95	26,633
599,15	26,936
599,34	24,816
599,53	23,956
599,72	24,598
599,92	27,706
600,11	26,455
600,30	26,891
600,49	29,507
600,69	25,368
600,88	25,852
601,07	25,364
601,26	23,124
601,45	24,922
601,65	25,395
601,84	25,707
602,03	25,327
602,22	25,916
602,42	28,203
602,61	25,209
602,80	26,606
602,99	25,985
603,18	25,042
603,38	29,145
603,57	24,766
603,76	25,024
603,95	25,367
604,14	26,098
604,34	23,281
604,53	23,813
604,72	26,277
604,91	26,298
605,10	26,734
605,29	27,561
605,49	23,953
605,68	27,022
605,87	29,816
606,06	25,378
606,25	24,984
606,45	26,260
606,64	26,168
606,83	27,229
607,02	23,393
607,21	26,740
607,40	24,653
607,60	24,478
607,79	23,670
607,98	23,597
608,17	24,024
608,36	23,205
608,55	23,374
608,75	24,387
608,94	23,651
609,13	20,606
609,32	19,887
609,51	22,368
609,70	21,861
609,89	21,202
610,09	18,712
610,28	19,711
610,47	20,040
610,66	20,699
610,85	17,702
611,04	21,247
611,23	17,729
611,43	18,066
611,62	18,997
611,81	19,811
612,00	20,656
612,19	20,132
612,38	21,071
612,57	20,684
612,77	21,104
612,96	20,113
613,15	21,643
613,34	22,222
613,53	21,506
613,72	23,201
613,91	21,595
614,10	22,079
614,29	24,054
614,49	22,116
614,68	22,188
614,87	22,572
615,06	27,448
615,25	23,499
615,44	25,741
615,63	24,433
615,82	24,297
616,01	25,638
616,21	22,575
616,40	25,765
616,59	28,061
616,78	23,877
616,97	23,576
617,16	22,998
617,35	24,961
617,54	23,418
617,73	26,698
617,92	25,110
618,11	25,421
618,31	25,753
618,50	25,801
618,69	22,838
618,88	24,305
619,07	21,723
619,26	22,277
619,45	22,979
619,64	21,956
619,83	22,915
620,02	23,809
620,21	25,840
620,40	23,593
620,59	24,387
620,78	22,949
620,97	24,086
621,17	27,094
621,36	23,035
621,55	23,578
621,74	24,461
621,93	25,347
622,12	24,990
622,31	23,837
622,50	24,554
622,69	27,544
622,88	24,738
623,07	27,066
623,26	25,016
623,45	27,196
623,64	23,830
623,83	24,078
624,02	24,726
624,21	25,196
624,40	23,834
624,59	22,370
624,78	23,941
624,97	26,346
625,16	22,466
625,35	23,006
625,54	22,794
625,73	23,678
625,92	26,077
626,12	26,229
626,31	25,663
626,50	25,788
626,69	23,652
626,88	23,956
627,07	24,402
627,26	23,756
627,45	25,584
627,64	23,538
627,83	25,135
628,02	22,322
628,21	24,226
628,40	24,667
628,59	27,179
628,78	22,152
628,97	24,189
629,16	22,529
629,35	23,737
629,54	23,965
629,73	25,569
629,92	22,992
630,10	24,774
630,29	24,985
630,48	22,387
630,67	23,319
630,86	25,525
631,05	22,512
631,24	25,565
631,43	22,332
631,62	23,209
631,81	22,898
632,00	24,407
632,19	21,353
632,38	24,465
632,57	25,072
632,76	22,389
632,95	23,704
633,14	24,933
633,33	25,207
633,52	24,555
633,71	24,608
633,90	22,081
634,09	23,934
634,28	23,644
634,47	23,335
634,66	24,296
634,85	24,070
635,04	27,118
635,22	23,141
635,41	22,998
635,60	26,698
635,79	26,082
635,98	24,490
636,17	23,564
636,36	23,180
636,55	22,969
636,74	23,458
636,93	24,409
637,12	23,613
637,31	22,402
637,50	23,279
637,69	24,027
637,87	26,273
638,06	22,333
638,25	23,036
638,44	23,383
638,63	22,871
638,82	23,680
639,01	23,310
639,20	23,693
639,39	25,444
639,58	24,138
639,77	24,233
639,95	23,514
640,14	25,716
640,33	25,016
640,52	23,823
640,71	27,363
640,90	22,595
641,09	25,063
641,28	24,006
641,47	24,509
641,66	24,832
641,84	25,910
642,03	20,156
642,22	25,031
642,41	27,710
642,60	23,232
642,79	24,298
642,98	24,581
643,17	24,987
643,35	22,984
643,54	22,695
643,73	24,379
643,92	24,310
644,11	23,427
644,30	23,640
644,49	25,346
644,67	23,875
644,86	23,236
645,05	23,526
645,24	22,389
645,43	23,605
645,62	24,176
645,81	22,261
645,99	22,181
646,18	26,215
646,37	25,092
646,56	23,034
646,75	24,475
646,94	26,995
647,13	21,700
647,31	23,890
647,50	23,367
647,69	25,920
647,88	23,143
648,07	24,127
648,26	28,244
648,44	25,086
648,63	25,222
648,82	23,436
649,01	26,565
649,20	21,498
649,38	24,250
649,57	24,016
649,76	22,520
649,95	24,422
650,14	22,760
650,33	23,827
650,51	25,223
650,70	23,267
650,89	25,407
651,08	24,568
651,27	25,841
651,45	23,230
651,64	22,590
651,83	24,490
652,02	22,186
652,21	24,180
652,39	25,218
652,58	25,545
652,77	27,617
652,96	24,850
653,15	25,351
653,33	24,457
653,52	24,762
653,71	25,706
653,90	26,070
654,09	24,337
654,27	23,708
654,46	26,114
654,65	25,069
654,84	24,318
655,02	26,545
655,21	24,945
655,40	26,102
655,59	25,241
655,77	25,646
655,96	25,323
656,15	26,242
656,34	25,612
656,53	25,176
656,71	26,168
656,90	26,205
657,09	24,916
657,28	26,160
657,46	24,920
657,65	24,518
657,84	24,796
658,03	24,444
658,21	25,311
658,40	23,664
658,59	23,780
658,78	24,441
658,96	22,755
659,15	26,090
659,34	23,476
659,52	24,950
659,71	23,588
659,90	22,784
660,09	23,460
660,27	23,881
660,46	26,340
660,65	26,535
660,84	23,078
661,02	24,222
661,21	25,737
661,40	25,415
661,58	24,048
661,77	25,126
661,96	22,083
662,15	24,152
662,33	24,684
662,52	24,674
662,71	23,826
662,89	22,831
663,08	23,837
663,27	24,264
663,45	23,639
663,64	24,137
663,83	23,205
664,02	22,201
664,20	24,139
664,39	23,061
664,58	24,278
664,76	22,889
664,95	24,554
665,14	25,467
665,32	22,886
665,51	25,316
665,70	24,238
665,88	26,036
666,07	23,190
666,26	26,020
666,44	23,655
666,63	21,396
666,82	23,421
667,00	22,758
667,19	22,655
667,38	24,522
667,56	24,231
667,75	24,591
667,94	23,185
668,12	23,614
668,31	25,045
668,50	25,008
668,68	24,710
668,87	23,224
669,06	24,186
669,24	24,460
669,43	23,442
669,62	23,540
669,80	21,864
669,99	23,136
670,18	23,389
670,36	21,966
670,55	27,011
670,74	21,809
670,92	21,772
671,11	24,499
671,29	21,718
671,48	24,188
671,67	23,190
671,85	22,966
672,04	23,290
672,23	22,219
672,41	22,100
672,60	23,597
672,78	23,390
672,97	22,599
673,16	26,026
673,34	24,294
673,53	22,977
673,71	23,723
673,90	23,780
674,09	23,638
674,27	23,410
674,46	23,278
674,64	22,786
674,83	23,794
675,02	22,659
675,20	23,072
675,39	22,793
675,57	23,318
675,76	22,367
675,95	27,842
676,13	24,086
676,32	23,026
676,50	23,255
676,69	21,299
676,88	24,139
677,06	22,218
677,25	24,594
677,43	26,417
677,62	24,840
677,80	23,207
677,99	24,356
678,18	24,490
678,36	24,781
678,55	21,829
678,73	21,512
678,92	23,544
679,10	24,201
679,29	22,758
679,48	21,460
679,66	23,416
679,85	23,698
680,03	23,297
680,22	21,789
680,40	23,471
680,59	24,969
680,77	22,286
680,96	22,854
681,15	24,021
681,33	25,967
681,52	23,826
681,70	23,980
681,89	25,265
682,07	23,464
682,26	21,959
682,44	24,169
682,63	23,492
682,81	25,603
683,00	24,419
683,18	21,594
683,37	24,323
683,55	22,660
683,74	25,208
683,92	29,807
684,11	24,412
684,29	23,182
684,48	23,262
684,67	22,855
684,85	23,637
685,04	24,401
685,22	23,994
685,41	23,152
685,59	24,416
685,78	22,516
685,96	23,345
686,15	22,930
686,33	22,856
686,52	22,821
686,70	22,447
686,89	22,728
687,07	23,696
687,26	23,832
687,44	23,095
687,62	23,291
687,81	24,801
687,99	25,540
688,18	24,088
688,36	23,407
688,55	25,941
688,73	22,980
688,92	23,271
689,10	23,635
689,29	25,337
689,47	24,720
689,66	23,320
689,84	22,915
690,03	27,589
690,21	22,588
690,40	22,666
690,58	22,645
690,76	21,748
690,95	23,278
691,13	20,895
691,32	24,109
691,50	22,316
691,69	24,769
691,87	23,948
692,06	22,698
692,24	22,907
692,43	24,779
692,61	24,424
692,79	24,324
692,98	23,363
693,16	24,772
693,35	21,725
693,53	25,366
693,72	23,818
693,90	26,151
694,08	22,393
694,27	23,249
694,45	24,833
694,64	26,578
694,82	23,156
695,01	22,780
695,19	22,362
695,37	24,658
695,56	23,816
695,74	24,726
695,93	23,927
696,11	23,500
696,29	24,772
696,48	24,623
696,66	25,723
696,85	21,318
697,03	22,509
697,21	23,349
697,40	26,588
697,58	25,359
697,77	25,527
697,95	23,520
698,13	23,593
698,32	22,667
698,50	21,826
698,69	23,049
698,87	25,227
699,05	25,435
699,24	22,862
699,42	22,738
699,60	21,621
699,79	23,229
699,97	21,373
700,16	22,419
700,34	27,218
700,52	22,328
700,71	23,943
700,89	21,342
701,07	22,087
701,26	22,852
701,44	21,984
701,63	23,296
701,81	24,125
701,99	23,225
702,18	23,298
702,36	22,507
702,54	25,681
702,73	23,197
702,91	22,789
703,09	21,323
703,28	21,815
703,46	23,575
703,64	23,630
703,83	24,196
704,01	24,625
704,19	22,371
704,38	22,547
704,56	23,015
704,74	24,514
704,93	22,721
705,11	23,302
705,29	22,562
705,48	27,077
705,66	24,230
705,84	22,265
706,03	22,665
706,21	21,779
706,39	22,708
706,58	22,019
706,76	23,508
706,94	23,855
707,12	23,783
707,31	23,193
707,49	24,023
707,67	23,747
707,86	26,721
708,04	23,759
708,22	22,766
708,41	25,682
708,59	22,306
708,77	23,686
708,95	22,799
709,14	25,480
709,32	24,563
709,50	21,927
709,69	24,438
709,87	22,652
710,05	21,701
710,23	22,579
710,42	21,645
710,60	24,235
710,78	25,392
710,97	22,885
711,15	23,314
711,33	24,531
711,51	22,363
711,70	22,279
711,88	23,389
712,06	25,478
712,24	25,326
712,43	23,724
712,61	22,461
712,79	22,738
712,97	22,634
713,16	23,070
713,34	20,301
713,52	24,815
713,70	23,167
713,89	21,312
714,07	22,711
714,25	24,310
714,43	23,627
714,62	21,228
714,80	22,396
714,98	21,154
715,16	22,951
715,35	21,415
715,53	23,824
715,71	24,750
715,89	26,648
716,07	24,600
716,26	22,742
716,44	25,039
716,62	24,170
716,80	24,711
716,99	23,098
717,17	26,077
717,35	23,635
717,53	22,752
717,71	21,887
717,90	24,186
718,08	24,276
718,26	23,279
718,44	25,330
718,62	26,443
718,81	23,872
718,99	20,974
719,17	24,103
719,35	23,384
719,53	22,316
719,72	21,503
719,90	21,517
720,08	22,154
720,26	26,017
720,44	22,271
720,62	22,221
720,81	25,767
720,99	23,682
721,17	23,085
721,35	25,101
721,53	21,583
721,72	27,225
721,90	22,677
722,08	22,152
722,26	23,765
722,44	24,715
722,62	21,487
722,81	23,097
722,99	23,217
723,17	24,280
723,35	24,457
723,53	24,260
723,71	24,385
723,89	28,472
724,08	25,076
724,26	22,825
724,44	24,252
724,62	25,412
724,80	20,186
724,98	23,693
725,16	25,727
725,35	23,290
725,53	23,353
725,71	23,372
725,89	22,180
726,07	27,194
726,25	25,760
726,43	21,497
726,61	24,384
726,80	25,770
726,98	22,815
727,16	22,749
727,34	23,522
727,52	23,020
727,70	23,896
727,88	23,086
728,06	21,455
728,25	21,500
728,43	22,804
728,61	23,602
728,79	24,216
728,97	26,034
729,15	23,580
729,33	25,416
729,51	25,151
729,69	24,041
729,87	24,761
730,06	24,576
730,24	25,563
730,42	26,825
730,60	23,264
730,78	25,100
730,96	24,430
731,14	24,515
731,32	23,557
731,50	22,987
731,68	22,082
731,86	26,021
732,04	23,422
732,22	22,881
732,41	30,597
732,59	24,021
732,77	24,051
732,95	23,267
733,13	25,449
733,31	24,648
733,49	21,752
733,67	24,980
733,85	24,892
734,03	23,357
734,21	23,245
734,39	23,775
734,57	24,425
734,75	26,431
734,93	21,959
735,11	24,492
735,29	21,410
735,47	25,805
735,65	22,002
735,84	22,789
736,02	23,910
736,20	28,094
736,38	22,350
736,56	23,648
736,74	23,199
736,92	23,426
737,10	22,848
737,28	25,890
737,46	23,974
737,64	23,644
737,82	23,067
738,00	24,997
738,18	23,485
738,36	24,475
738,54	23,197
738,72	23,516
738,90	23,765
739,08	24,890
739,26	22,135
739,44	23,726
739,62	25,958
739,80	24,137
739,98	24,084
740,16	23,464
740,34	24,186
740,52	25,421
740,70	23,787
740,88	23,496
741,06	24,158
741,24	22,084
741,42	23,442
741,60	22,305
741,78	24,011
741,96	24,856
742,14	23,236
742,32	23,611
742,50	22,870
742,68	24,551
742,86	25,404
743,04	20,847
743,21	25,136
743,39	23,171
743,57	23,195
743,75	24,970
743,93	22,057
744,11	18,689
744,29	23,937
744,47	21,439
744,65	24,921
744,83	22,393
745,01	21,901
745,19	23,597
745,37	28,651
745,55	24,335
745,73	26,398
745,91	21,673
746,09	22,664
746,27	22,843
746,45	21,939
746,62	23,516
746,80	21,110
746,98	22,785
747,16	20,193
747,34	22,651
747,52	23,725
747,70	23,041
747,88	25,720
748,06	25,065
748,24	23,817
748,42	25,216
748,60	22,735
748,78	21,152
748,95	27,080
749,13	28,465
749,31	22,913
749,49	23,547
749,67	26,352
749,85	25,240
750,03	23,770
750,21	23,245
750,39	24,766
750,57	22,161
750,74	23,448
750,92	24,008
751,10	23,470
751,28	21,276
751,46	24,762
751,64	24,075
751,82	26,217
752,00	24,265
752,17	24,898
752,35	26,411
752,53	24,526
752,71	23,158
752,89	22,630
753,07	22,745
753,25	23,836
753,43	21,039
753,60	26,169
753,78	24,587
753,96	23,989
754,14	24,359
754,32	26,230
754,50	24,472
754,68	24,935
754,85	22,268
755,03	24,225
755,21	26,175
755,39	27,150
755,57	22,991
755,75	25,835
755,92	24,958
756,10	23,478
756,28	24,408
756,46	22,852
756,64	23,354
756,82	24,674
756,99	23,274
757,17	22,523
757,35	21,231
757,53	27,443
757,71	28,560
757,89	21,733
758,06	24,489
758,24	24,711
758,42	26,645
758,60	21,224
758,78	23,387
758,95	26,589
759,13	24,799
759,31	24,586
759,49	22,510
759,67	25,883
759,84	21,600
760,02	24,928
760,20	22,492
760,38	24,781
760,56	21,941
760,73	23,085
760,91	22,694
761,09	26,573
761,27	23,016
761,45	22,025
761,62	20,618
761,80	20,985
761,98	24,863
762,16	26,342
762,33	22,547
762,51	25,122
762,69	21,772
762,87	22,975
763,05	26,652
763,22	24,328
763,40	22,726
763,58	22,675
763,76	21,909
763,93	25,453
764,11	26,481
764,29	24,271
764,47	25,487
764,64	26,731
764,82	26,891
765,00	24,807
765,18	21,973
765,35	23,744
765,53	22,469
765,71	24,569
765,89	22,798
766,06	22,116
766,24	23,853
766,42	23,686
766,60	22,096
766,77	23,116
766,95	23,924
767,13	24,772
767,30	22,688
767,48	21,309
767,66	23,503
767,84	22,579
768,01	23,132
768,19	23,349
768,37	23,463
768,54	24,099
768,72	25,676
768,90	23,443
769,08	24,831
769,25	22,493
769,43	23,580
769,61	20,566
769,78	23,776
769,96	22,213
770,14	24,473
770,31	26,454
770,49	27,340
770,67	23,561
770,85	22,800
771,02	24,594
771,20	24,354
771,38	24,107
771,55	23,558
771,73	20,254
771,91	24,778
772,08	25,389
772,26	24,401
772,44	23,992
772,61	24,503
772,79	23,557
772,97	22,373
773,14	23,340
773,32	26,134
773,50	22,559
773,67	25,379
773,85	27,286
774,03	27,221
774,20	23,819
774,38	23,205
774,56	23,844
774,73	21,943
774,91	20,935
775,09	22,741
775,26	25,434
775,44	24,853
775,61	24,164
775,79	22,564
775,97	27,197
776,14	23,991
776,32	25,083
776,50	24,010
776,67	25,116
776,85	25,609
777,03	21,824
777,20	24,557
777,38	26,163
777,55	25,194
777,73	22,508
777,91	22,248
778,08	21,550
778,26	22,717
778,43	25,227
778,61	22,833
778,79	22,478
778,96	26,335
779,14	23,754
779,32	23,472
779,49	21,921
779,67	29,194
779,84	27,069
780,02	24,369
780,20	22,225
780,37	24,061
780,55	20,340
780,72	22,774
780,90	24,165
781,07	24,354
781,25	27,333
781,43	24,826
781,60	22,943
781,78	25,543
781,95	26,426
782,13	23,815
782,30	24,288
782,48	26,304
782,66	23,319
782,83	23,856
783,01	31,849
783,18	26,334
783,36	27,060
783,53	25,811
783,71	20,794
783,89	23,160
784,06	25,476
784,24	23,440
784,41	22,234
784,59	22,101
784,76	27,453
784,94	21,030
785,11	25,569
785,29	24,413
785,46	24,569
785,64	21,785
785,82	27,210
785,99	26,879
786,17	27,813
786,34	22,680
786,52	27,922
786,69	26,421
786,87	25,249
787,04	24,051
787,22	20,276
787,39	26,587
787,57	27,504
787,74	20,873
787,92	28,697
788,09	25,785
788,27	25,698
788,44	24,128
788,62	27,690
788,79	24,035
788,97	24,073
789,14	24,903
789,32	24,604
789,49	24,165
789,67	24,931
789,84	22,414
790,02	26,687
790,19	21,085
790,37	24,881
790,54	22,516
790,72	30,800
790,89	27,144
791,07	28,947
791,24	22,124
791,42	25,686
791,59	29,699
791,77	23,522
791,94	25,603
792,12	23,597
792,29	26,480
792,47	27,231
792,64	26,045
792,81	27,510
792,99	22,342
793,16	23,431
793,34	24,793
793,51	24,260
793,69	25,635
793,86	22,868
794,04	27,621
794,21	28,307
794,39	22,432
794,56	24,195
794,73	27,820
794,91	29,850
795,08	24,746
795,26	25,179
795,43	22,243
795,61	27,977
795,78	24,289
795,95	26,401
796,13	27,009
796,30	26,134
796,48	23,202
796,65	23,508
796,83	27,645
797,00	27,934
797,17	25,264
797,35	23,005
797,52	24,021
797,70	28,795
797,87	27,405
798,04	27,102
798,22	23,921
798,39	24,389
798,57	21,126
798,74	26,968
798,91	23,457
799,09	26,789
799,26	26,128
799,44	28,700
799,61	22,434
799,78	23,411
799,96	28,127
800,13	20,709
800,31	27,046
800,48	27,467
800,65	29,533
800,83	26,838
801,00	24,535
801,17	26,671
801,35	25,899
801,52	28,454
801,70	28,021
801,87	23,002
802,04	29,071
802,22	22,961
802,39	23,772
802,56	29,949
802,74	28,675
802,91	25,427
803,08	24,233
803,26	29,033
803,43	31,789
803,61	20,314
803,78	24,734
803,95	29,205
804,13	26,998
804,30	22,216
804,47	27,360
804,65	26,751
804,82	28,156
804,99	27,477
805,17	22,546
805,34	35,595
805,51	30,437
805,69	24,856
805,86	29,050
806,03	35,945
806,21	28,551
806,38	31,615
806,55	24,359
806,72	28,605
806,90	30,641
807,07	25,731
807,24	25,456
807,42	22,198
807,59	26,557
807,76	23,485
807,94	26,431
808,11	31,016
808,28	32,748
808,45	26,211
808,63	23,340
808,80	30,488
808,97	24,081
809,15	27,746
809,32	26,114
809,49	29,016
809,67	28,470
809,84	30,261
810,01	30,082
810,18	37,810
810,36	31,350
810,53	24,151
810,70	28,627
810,87	27,117
811,05	28,892
811,22	26,119
811,39	25,055
811,57	29,696
811,74	24,911
811,91	29,267
812,08	27,122
812,26	26,899
812,43	22,150
812,60	30,850
812,77	25,901
812,95	27,466
813,12	25,265
813,29	25,582
813,46	27,643
813,64	28,793
813,81	27,092
813,98	28,962
814,15	29,700
814,32	31,478
814,50	25,059
814,67	30,204
814,84	33,074
815,01	28,136
815,19	23,477
815,36	26,963
815,53	26,941
815,70	25,641
815,87	31,730
816,05	26,462
816,22	30,601
816,39	30,954
816,56	33,665
816,74	34,764
816,91	30,518
817,08	33,502
817,25	38,875
817,42	31,711
817,60	28,658
817,77	33,419
817,94	26,392
818,11	25,809
818,28	25,109
818,45	31,307
818,63	26,972
818,80	30,622
818,97	26,783
819,14	30,058
819,31	31,740
819,49	30,041
819,66	23,658
819,83	31,589
820,00	31,770
820,17	23,468
820,34	28,009
820,52	29,122
820,69	32,950
820,86	28,509
821,03	28,705
821,20	32,859
821,37	35,400
821,55	29,155
821,72	23,758
821,89	30,905
822,06	34,440
822,23	21,238
822,40	27,502
822,57	32,580
822,75	34,477
822,92	17,723
823,09	31,276
823,26	33,480
823,43	35,914
823,60	26,829
823,77	24,197
823,94	36,251
824,12	35,527
824,29	26,040
824,46	33,711
824,63	42,365
824,80	35,711
824,97	30,055
825,14	27,609
825,31	29,377
825,49	29,479
825,66	16,584
825,83	28,248
826,00	27,608
826,17	39,555
826,34	29,644
826,51	24,600
826,68	26,483
826,85	26,072
827,02	25,115
827,20	27,829
827,37	25,224
827,54	33,953
827,71	31,947
827,88	29,189
828,05	32,026
828,22	32,944
828,39	30,049
828,56	31,089
828,73	29,820
828,90	29,398
829,07	27,074
829,25	28,017
829,42	27,210
829,59	26,134
829,76	25,051
829,93	30,012
830,10	27,256
830,27	29,194
830,44	24,046
830,61	19,201
830,78	25,661
830,95	31,184
831,12	30,756
831,29	26,873
831,46	23,357
831,63	24,046
831,80	31,373
831,97	24,914
832,14	36,178
832,31	40,035
832,48	26,045
832,65	31,516
832,83	24,823
833,00	35,491
833,17	26,801
833,34	32,275
833,51	36,467
833,68	36,935
833,85	27,356
834,02	27,306
834,19	38,182
834,36	31,704
834,53	24,615
834,70	28,798
834,87	43,979
835,04	30,085
835,21	31,245
835,38	34,844
835,55	26,103
835,72	48,351
835,89	31,246
836,06	28,345
836,23	46,227
836,40	27,047
836,57	26,293
836,74	30,174
836,91	27,092
837,08	43,655
837,25	28,224
837,42	30,958
837,59	24,449
837,76	39,014
837,93	30,922
838,09	29,377
838,26	28,680
838,43	42,058
838,60	38,561
838,77	34,892
838,94	34,403
839,11	45,911
839,28	33,641
839,45	27,854
839,62	28,689
839,79	28,021
839,96	31,959
840,13	36,156
840,30	27,603
840,47	32,010
840,64	43,321
840,81	32,371
840,98	26,579
841,15	37,529
841,32	26,317
841,48	42,256
841,65	35,706
841,82	30,953
841,99	31,931
842,16	40,754
842,33	28,482
842,50	35,864
842,67	17,836
842,84	28,099
843,01	32,877
843,18	24,305
843,35	38,102
843,52	26,887
843,68	36,032
843,85	27,996
844,02	19,724
844,19	28,530
844,36	27,836
844,53	28,940
844,70	16,929
844,87	44,294
845,04	38,371
845,21	18,493
845,37	42,021
845,54	25,156
845,71	34,704
845,88	52,566
846,05	32,383
846,22	17,744
846,39	34,532
846,56	37,933
846,72	14,959
846,89	35,089
847,06	47,620
847,23	40,132
847,40	21,219
847,57	29,885
847,74	25,636
847,90	45,073
848,07	30,510
848,24	37,930
848,41	39,300
848,58	48,585
848,75	41,399
848,92	25,120
849,08	37,668
849,25	26,223
849,42	27,410
849,59	33,701
849,76	26,526
849,93	39,306
850,09	39,877
850,26	17,028
850,43	53,341
850,60	24,792
850,77	25,022
850,94	29,575
851,10	35,373
851,27	31,792
851,44	37,193
851,61	30,694
851,78	44,288
851,95	46,594
852,11	33,304
852,28	20,896
852,45	46,880
852,62	49,676
852,79	43,787
852,95	28,758
853,12	51,928
853,29	29,253
853,46	28,998
853,63	33,087
853,79	24,871
853,96	27,093
854,13	46,150
854,30	40,167
854,46	52,989
854,63	34,143
854,80	37,177
854,97	37,002
855,14	62,210
855,30	52,874
855,47	48,711
855,64	39,088
855,81	36,726
855,97	59,412
856,14	41,841
856,31	19,633
856,48	54,033
856,65	63,625
856,81	34,874
856,98	27,611
857,15	18,065
857,32	53,872
857,48	39,413
857,65	54,395
857,82	51,243
857,99	45,100
858,15	41,194
858,32	36,051
858,49	24,342
858,65	71,837
858,82	38,938
858,99	42,346
859,16	57,973
859,32	39,435
859,49	47,372
859,66	55,100
859,83	38,662
859,99	40,156
860,16	30,889
860,33	38,394
860,49	46,449
860,66	40,065
860,83	40,026
861,00	40,848
861,16	68,823
861,33	51,748
861,50	25,690
861,66	41,753
861,83	49,211
862,00	24,283
862,16	28,125
862,33	45,815
862,50	79,027
862,67	38,939
862,83	33,573
863,00	50,775
863,17	50,122
863,33	35,518
863,50	12,081
863,67	45,746
863,83	45,666
864,00	57,401
864,17	28,484
864,33	29,524
864,50	29,804
864,67	52,830
864,83	27,113
865,00	52,838
865,17	33,803
865,33	73,402
865,50	34,074
865,67	31,153
865,83	50,089
866,00	65,467
866,17	42,530
866,33	56,154
866,50	30,130
866,66	52,080
866,83	46,859
867,00	62,210
867,16	95,666
867,33	91,925
867,50	38,619
867,66	51,012
867,83	66,400
868,00	39,397
868,16	61,485
868,33	44,024
868,49	38,678
868,66	62,146
868,83	56,584
868,99	53,419
869,16	71,770
869,32	68,074
869,49	50,412
869,66	36,759
869,82	72,948
869,99	44,824
870,15	34,979
870,32	42,977
870,49	112,389
870,65	86,365
870,82	51,590
870,98	46,019
871,15	95,489
871,32	61,034
871,48	29,594
871,65	23,343
871,81	35,312
871,98	25,358
872,15	37,524
872,31	35,184
872,48	71,888
872,64	73,165
872,81	49,526
872,97	37,847
873,14	94,141
873,31	54,956
873,47	57,824
873,64	71,850
873,80	90,096
873,97	89,303
874,13	77,773
874,30	67,842
874,46	60,097
874,63	52,805
874,80	37,740
874,96	45,548
875,13	98,372
875,29	49,797
875,46	66,903
875,62	50,978
875,79	89,531
875,95	58,565
876,12	34,311
876,28	35,303
876,45	101,117
876,61	37,229
876,78	50,442
876,94	48,681
877,11	87,606
877,27	142,011
877,44	56,324
877,60	44,327
877,77	71,927
877,94	147,332
878,10	47,460
878,27	88,468
878,43	87,123
878,60	31,695
878,76	98,835
878,93	87,901
879,09	38,028
879,26	111,090
879,42	83,839
879,58	55,208
879,75	124,355
879,91	124,553
880,08	36,811
880,24	51,444
880,41	42,139
880,57	61,251
880,74	120,918
880,90	60,053
881,07	90,873
881,23	151,795
881,40	78,129
881,56	47,583
881,73	148,282
881,89	114,203
882,06	42,897
882,22	129,225
882,38	127,652
882,55	151,789
882,71	77,287
882,88	74,755
883,04	86,291
883,21	136,513
883,37	129,276
883,54	79,517
883,70	251,923
883,86	149,466
884,03	111,706
884,19	57,977
884,36	118,049
884,52	121,826
884,69	105,380
884,85	64,958
885,01	91,647
885,18	140,436
885,34	59,369
885,51	29,816
885,67	64,968
>>>>> Data<<<<< Espectral Procesado Extremo
