Fichero De Datos De SpectraSuite
++++++++++++++++++++++++++++++++++++
Fecha: Wed Apr 22 09:04:38 CEST 2009
Usuario: evoflor
Presente Oscuro Del Espectro: Sí
La Referencia de Presente Del Espectro De: Sí
Muestreados de los componentes de Número de espectros: 1
Espectrómetros: USB4F02353
Tiempo de integración (usec): 500000 (USB4F02353)
Promedio de Espectros Hechos un: 5 (USB4F02353)
El Alisar Del Furgón: 0 (USB4F02353)
Párrafo de de Corregir del la del del de Eléctrica del obscuridad: Sí (USB4F02353)
Estrobo/Lámpara Permitido: No (USB4F02353)
Correct for Detector Non-linearity: No (USB4F02353)
Párrafo de de Corregir del la del del de Externa del luz: No (USB4F02353)
Procesado del espectro de Número de pixeles en: 3648
>>>>> Comienza Data<<<<< Espectral Procesado Del EL
177,79	905,538
178,00	905,538
178,22	905,538
178,44	-7667,023
178,66	607,957
178,88	232,057
179,09	229,820
179,31	204,620
179,53	-6261,079
179,75	261,733
179,96	18,754
180,18	389,647
180,40	-278,390
180,62	-224,184
180,83	519,664
181,05	-942,538
181,27	-1116,371
181,49	63,754
181,70	-482,434
181,92	467,854
182,14	206,022
182,36	-1134,940
182,58	189,231
182,79	-1065,283
183,01	-15321,722
183,23	506,588
183,45	-75,081
183,66	98,138
183,88	835,215
184,10	998,471
184,32	1193,256
184,53	-289,490
184,75	716,622
184,97	-316,878
185,18	1165,445
185,40	418,209
185,62	-805,267
185,84	2065,955
186,05	4268,170
186,27	-6695,063
186,49	-734,164
186,71	297,898
186,92	430,167
187,14	1591,046
187,36	311,665
187,58	850,420
187,79	-677,996
188,01	-1702,731
188,23	78,626
188,45	101,385
188,66	-181,105
188,88	253,591
189,10	-327,494
189,31	-122,827
189,53	-16,693
189,75	1161,903
189,97	109,659
190,18	943,091
190,40	1152,901
190,62	233,172
190,83	474,942
191,05	-215,115
191,27	6673,814
191,49	597,174
191,70	806,413
191,92	578,745
192,14	441,025
192,35	-1459,569
192,57	-1314,588
192,79	-1686,844
193,01	547,753
193,22	-44,877
193,44	-659,047
193,66	304,344
193,87	952,401
194,09	158,486
194,31	290,115
194,53	-427,587
194,74	274,499
194,96	251,829
195,18	794,034
195,39	-1270,893
195,61	-369,494
195,83	2977,127
196,04	493,041
196,26	187,420
196,48	1855,306
196,70	638,167
196,91	190,849
197,13	-215,786
197,35	292,852
197,56	-684,593
197,78	5278,045
198,00	94,076
198,21	504,487
198,43	944,237
198,65	256,772
198,86	123,930
199,08	903,197
199,30	190,970
199,51	916,619
199,73	-2208,754
199,95	243,454
200,16	758,662
200,38	240,467
200,60	2373,468
200,81	-509,969
201,03	15671,770
201,25	733,544
201,46	-418,202
201,68	553,163
201,90	526,627
202,11	361,769
202,33	250,975
202,55	203,624
202,76	692,217
202,98	604,726
203,20	245,478
203,41	-1269,321
203,63	514,795
203,85	157,027
204,06	-314,472
204,28	193,500
204,50	-186,967
204,71	489,741
204,93	54,854
205,15	306,202
205,36	-219,200
205,58	-1392,970
205,80	-2704,630
206,01	-6867,710
206,23	367,210
206,45	364,027
206,66	385,781
206,88	-348,690
207,10	2346,513
207,31	-55426,490
207,53	276,859
207,75	-20,006
207,96	397,524
208,18	430,390
208,39	232,810
208,61	910,294
208,83	9067,169
209,04	197,185
209,26	317,597
209,48	107,236
209,69	-132,374
209,91	916,636
210,13	30,137
210,34	199,291
210,56	280,644
210,77	1543,499
210,99	309,009
211,21	-377,228
211,42	217,897
211,64	433,125
211,86	309,335
212,07	211,863
212,29	773,313
212,50	1365,887
212,72	226,793
212,94	511,428
213,15	63,108
213,37	906,277
213,58	222,742
213,80	471,286
214,02	2984,651
214,23	277,083
214,45	291,841
214,67	52,058
214,88	-169,527
215,10	1256,865
215,31	832,508
215,53	96,649
215,75	452,943
215,96	655,583
216,18	173,641
216,39	278,211
216,61	520,539
216,83	926,481
217,04	480,883
217,26	73,639
217,47	651,811
217,69	326,702
217,91	49,552
218,12	1033,139
218,34	127,799
218,55	245,664
218,77	17,319
218,99	97,491
219,20	175,693
219,42	443,004
219,63	103,982
219,85	272,954
220,06	-209,627
220,28	112,516
220,50	57,850
220,71	99,890
220,93	453,075
221,14	394,297
221,36	66,163
221,58	75,058
221,79	72,460
222,01	146,664
222,22	167,732
222,44	88,043
222,65	199,446
222,87	54,899
223,09	97,789
223,30	66,826
223,52	540,241
223,73	111,318
223,95	125,916
224,16	83,194
224,38	132,146
224,60	61,266
224,81	-37,797
225,03	92,874
225,24	120,434
225,46	28,379
225,67	2,335
225,89	61,667
226,10	125,602
226,32	179,224
226,54	1,859
226,75	32,167
226,97	133,375
227,18	118,292
227,40	51,306
227,61	40,989
227,83	39,168
228,04	114,499
228,26	81,771
228,47	13,761
228,69	108,116
228,91	55,793
229,12	126,306
229,34	39,110
229,55	59,182
229,77	44,742
229,98	18,943
230,20	40,743
230,41	-3,359
230,63	70,783
230,84	43,911
231,06	74,910
231,27	-5,279
231,49	39,323
231,71	20,954
231,92	26,923
232,14	-10,785
232,35	36,561
232,57	12,872
232,78	17,844
233,00	24,012
233,21	26,883
233,43	28,021
233,64	-0,412
233,86	29,629
234,07	34,684
234,29	8,189
234,50	12,920
234,72	32,362
234,93	19,565
235,15	0,925
235,36	17,973
235,58	47,228
235,79	29,366
236,01	12,336
236,22	18,338
236,44	37,596
236,65	18,429
236,87	5,970
237,08	13,245
237,30	-4,700
237,51	22,782
237,73	13,232
237,94	13,517
238,16	14,988
238,37	11,614
238,59	-1,301
238,80	10,798
239,02	6,457
239,23	22,279
239,45	4,787
239,66	20,460
239,88	30,043
240,09	20,495
240,31	8,719
240,52	5,499
240,74	12,079
240,95	11,154
241,17	12,029
241,38	10,496
241,60	2,043
241,81	21,636
242,03	-0,836
242,24	11,878
242,46	10,026
242,67	-0,767
242,89	14,978
243,10	10,002
243,32	20,572
243,53	11,524
243,75	5,261
243,96	13,597
244,18	10,737
244,39	13,922
244,60	-0,493
244,82	7,377
245,03	14,949
245,25	12,895
245,46	27,427
245,68	2,055
245,89	29,709
246,11	20,857
246,32	11,306
246,54	11,510
246,75	7,043
246,97	16,841
247,18	22,508
247,39	4,713
247,61	12,938
247,82	12,587
248,04	3,540
248,25	2,648
248,47	8,368
248,68	11,224
248,90	8,983
249,11	9,221
249,33	14,802
249,54	12,617
249,75	7,685
249,97	1,794
250,18	17,811
250,40	14,763
250,61	2,771
250,83	2,066
251,04	7,731
251,25	13,843
251,47	9,584
251,68	5,393
251,90	9,167
252,11	7,276
252,33	7,058
252,54	6,379
252,76	5,717
252,97	0,884
253,18	8,293
253,40	8,933
253,61	4,967
253,83	8,229
254,04	9,857
254,25	4,282
254,47	1,412
254,68	8,917
254,90	6,190
255,11	3,803
255,33	10,952
255,54	5,839
255,75	4,322
255,97	8,468
256,18	3,807
256,40	8,046
256,61	6,116
256,82	4,047
257,04	10,799
257,25	4,813
257,47	6,984
257,68	8,224
257,89	7,084
258,11	5,871
258,32	11,245
258,54	5,464
258,75	15,063
258,96	6,789
259,18	9,574
259,39	2,166
259,61	11,306
259,82	3,598
260,03	3,002
260,25	7,223
260,46	7,590
260,68	5,421
260,89	4,192
261,10	7,526
261,32	6,504
261,53	-0,811
261,75	7,499
261,96	5,870
262,17	18,344
262,39	10,505
262,60	0,027
262,81	3,514
263,03	14,912
263,24	7,178
263,46	3,477
263,67	7,193
263,88	8,024
264,10	3,290
264,31	5,750
264,52	6,180
264,74	8,680
264,95	5,464
265,17	7,761
265,38	6,568
265,59	12,140
265,81	9,104
266,02	0,608
266,23	-0,081
266,45	8,227
266,66	10,552
266,87	5,169
267,09	3,724
267,30	9,683
267,52	13,118
267,73	7,164
267,94	3,900
268,16	7,800
268,37	1,584
268,58	8,073
268,80	-0,951
269,01	6,884
269,22	10,450
269,44	7,896
269,65	9,131
269,86	4,899
270,08	7,851
270,29	4,012
270,50	4,045
270,72	8,003
270,93	0,155
271,14	4,076
271,36	3,124
271,57	7,372
271,78	7,208
272,00	4,513
272,21	8,130
272,42	6,269
272,64	9,939
272,85	2,162
273,06	2,623
273,28	6,950
273,49	2,703
273,70	6,171
273,92	5,969
274,13	5,528
274,34	0,459
274,56	9,639
274,77	5,156
274,98	12,777
275,20	9,715
275,41	7,184
275,62	0,582
275,84	5,753
276,05	15,900
276,26	4,321
276,47	3,117
276,69	12,089
276,90	9,883
277,11	4,285
277,33	1,647
277,54	11,389
277,75	7,369
277,97	1,602
278,18	3,212
278,39	9,736
278,61	3,074
278,82	11,323
279,03	7,012
279,24	3,766
279,46	4,914
279,67	11,318
279,88	4,163
280,10	10,699
280,31	2,997
280,52	2,570
280,73	1,880
280,95	6,466
281,16	4,332
281,37	5,047
281,59	4,768
281,80	9,432
282,01	1,612
282,22	1,021
282,44	6,201
282,65	10,960
282,86	7,214
283,08	2,505
283,29	5,181
283,50	0,651
283,71	5,401
283,93	4,847
284,14	2,247
284,35	6,948
284,56	5,548
284,78	-0,738
284,99	5,418
285,20	11,311
285,42	2,757
285,63	3,156
285,84	2,851
286,05	3,788
286,27	4,826
286,48	6,421
286,69	9,112
286,90	4,978
287,12	3,443
287,33	3,632
287,54	2,899
287,75	9,452
287,97	3,422
288,18	3,041
288,39	5,998
288,60	5,430
288,82	5,256
289,03	3,706
289,24	6,843
289,45	10,745
289,67	5,500
289,88	3,151
290,09	9,254
290,30	4,139
290,52	2,738
290,73	0,284
290,94	3,447
291,15	4,271
291,37	7,813
291,58	4,436
291,79	3,794
292,00	4,626
292,21	5,532
292,43	6,428
292,64	0,336
292,85	4,885
293,06	6,499
293,28	4,254
293,49	2,985
293,70	9,826
293,91	-0,127
294,12	6,017
294,34	2,216
294,55	6,880
294,76	5,286
294,97	6,915
295,19	5,141
295,40	3,461
295,61	7,109
295,82	5,702
296,03	4,949
296,25	6,730
296,46	2,098
296,67	3,967
296,88	5,947
297,09	3,488
297,31	2,231
297,52	6,802
297,73	2,709
297,94	3,715
298,15	7,763
298,37	4,867
298,58	3,100
298,79	5,324
299,00	-0,209
299,21	4,351
299,43	1,550
299,64	9,109
299,85	3,657
300,06	2,950
300,27	3,232
300,49	7,596
300,70	6,693
300,91	2,114
301,12	2,677
301,33	7,762
301,54	3,052
301,76	5,292
301,97	3,012
302,18	7,010
302,39	7,900
302,60	3,788
302,82	3,954
303,03	9,265
303,24	2,963
303,45	4,257
303,66	5,686
303,87	1,424
304,09	5,225
304,30	2,115
304,51	3,090
304,72	2,368
304,93	4,626
305,14	3,026
305,36	2,467
305,57	2,041
305,78	7,417
305,99	3,878
306,20	5,155
306,41	0,784
306,62	1,760
306,84	3,338
307,05	6,270
307,26	1,966
307,47	10,224
307,68	4,004
307,89	4,048
308,11	6,756
308,32	3,932
308,53	3,723
308,74	2,978
308,95	3,286
309,16	7,816
309,37	4,634
309,59	1,224
309,80	4,416
310,01	4,015
310,22	5,741
310,43	6,074
310,64	6,953
310,85	6,238
311,06	2,411
311,28	4,042
311,49	3,932
311,70	10,162
311,91	2,982
312,12	2,087
312,33	3,357
312,54	4,774
312,75	8,829
312,97	2,382
313,18	7,584
313,39	2,473
313,60	3,089
313,81	4,113
314,02	5,636
314,23	7,277
314,44	3,679
314,65	1,562
314,87	2,046
315,08	1,423
315,29	3,114
315,50	6,142
315,71	10,838
315,92	7,765
316,13	1,431
316,34	4,564
316,55	7,535
316,77	-0,051
316,98	2,867
317,19	1,948
317,40	7,264
317,61	8,492
317,82	6,641
318,03	1,737
318,24	4,646
318,45	8,714
318,66	4,444
318,87	2,403
319,09	4,369
319,30	7,129
319,51	6,256
319,72	6,245
319,93	6,032
320,14	6,604
320,35	7,001
320,56	1,043
320,77	5,928
320,98	8,170
321,19	7,170
321,40	4,654
321,62	5,196
321,83	-0,557
322,04	5,253
322,25	6,477
322,46	9,916
322,67	6,234
322,88	7,533
323,09	3,179
323,30	7,325
323,51	11,044
323,72	5,243
323,93	1,898
324,14	5,756
324,35	-0,832
324,56	2,503
324,77	2,893
324,99	3,668
325,20	3,315
325,41	5,450
325,62	4,665
325,83	-0,135
326,04	3,393
326,25	5,248
326,46	0,707
326,67	5,038
326,88	5,817
327,09	3,351
327,30	5,764
327,51	5,100
327,72	1,647
327,93	4,476
328,14	2,969
328,35	5,921
328,56	3,022
328,77	6,249
328,98	7,482
329,19	4,193
329,40	6,733
329,61	2,645
329,82	2,892
330,04	5,836
330,25	4,578
330,46	4,677
330,67	2,457
330,88	6,502
331,09	2,392
331,30	3,698
331,51	4,234
331,72	6,209
331,93	5,469
332,14	3,500
332,35	4,544
332,56	4,077
332,77	7,812
332,98	3,792
333,19	4,782
333,40	5,128
333,61	1,718
333,82	4,948
334,03	5,815
334,24	12,352
334,45	5,146
334,66	5,918
334,87	2,490
335,08	3,280
335,29	1,496
335,50	2,604
335,71	0,593
335,92	6,686
336,13	6,408
336,34	1,068
336,55	5,287
336,76	5,786
336,97	3,995
337,18	3,145
337,39	4,804
337,60	5,920
337,81	5,020
338,02	4,977
338,23	3,665
338,44	4,949
338,65	1,952
338,86	5,147
339,07	5,182
339,28	5,615
339,49	4,858
339,70	3,599
339,91	4,868
340,11	8,498
340,32	4,917
340,53	2,072
340,74	1,059
340,95	2,668
341,16	2,616
341,37	6,060
341,58	4,093
341,79	2,845
342,00	2,389
342,21	-1,440
342,42	5,427
342,63	9,196
342,84	5,864
343,05	2,442
343,26	8,824
343,47	4,961
343,68	3,033
343,89	3,511
344,10	2,094
344,31	3,326
344,52	5,929
344,73	1,467
344,94	2,147
345,14	3,850
345,35	4,044
345,56	1,713
345,77	0,863
345,98	2,440
346,19	4,683
346,40	7,222
346,61	1,734
346,82	5,704
347,03	6,462
347,24	1,944
347,45	5,544
347,66	6,192
347,87	2,992
348,08	7,893
348,28	3,053
348,49	3,505
348,70	7,494
348,91	4,210
349,12	4,824
349,33	-1,003
349,54	6,807
349,75	6,861
349,96	4,602
350,17	6,355
350,38	1,601
350,59	5,491
350,80	4,801
351,00	1,824
351,21	8,500
351,42	1,699
351,63	3,379
351,84	6,372
352,05	6,885
352,26	4,424
352,47	4,989
352,68	8,795
352,89	2,352
353,09	2,704
353,30	1,452
353,51	2,269
353,72	9,561
353,93	7,848
354,14	2,219
354,35	5,712
354,56	8,681
354,77	3,010
354,98	0,331
355,18	6,896
355,39	9,342
355,60	3,209
355,81	5,506
356,02	3,781
356,23	1,474
356,44	6,118
356,65	3,230
356,85	7,158
357,06	9,398
357,27	5,358
357,48	1,395
357,69	7,667
357,90	6,857
358,11	-1,907
358,32	2,907
358,52	6,820
358,73	3,605
358,94	5,037
359,15	3,619
359,36	8,263
359,57	6,102
359,78	10,768
359,98	5,969
360,19	0,109
360,40	4,363
360,61	6,828
360,82	2,466
361,03	11,856
361,24	16,235
361,44	1,407
361,65	5,602
361,86	3,613
362,07	5,127
362,28	9,030
362,49	7,164
362,70	5,318
362,90	3,419
363,11	4,272
363,32	2,153
363,53	3,345
363,74	10,459
363,95	8,316
364,15	2,707
364,36	10,023
364,57	2,612
364,78	1,472
364,99	3,151
365,20	5,369
365,40	6,705
365,61	4,228
365,82	5,632
366,03	8,663
366,24	3,403
366,45	0,970
366,65	1,564
366,86	4,429
367,07	2,998
367,28	-0,022
367,49	2,742
367,69	7,245
367,90	5,275
368,11	5,808
368,32	2,030
368,53	7,589
368,73	2,830
368,94	4,376
369,15	7,414
369,36	7,336
369,57	6,458
369,78	5,584
369,98	5,609
370,19	7,428
370,40	0,841
370,61	2,033
370,82	6,432
371,02	9,964
371,23	3,992
371,44	4,277
371,65	3,168
371,85	9,807
372,06	3,215
372,27	7,409
372,48	2,503
372,69	9,178
372,89	5,340
373,10	6,131
373,31	6,497
373,52	5,651
373,73	9,084
373,93	5,729
374,14	5,710
374,35	6,249
374,56	4,089
374,76	6,223
374,97	4,203
375,18	9,834
375,39	6,587
375,60	6,371
375,80	6,079
376,01	2,105
376,22	6,230
376,43	4,519
376,63	4,868
376,84	7,901
377,05	6,166
377,26	3,423
377,46	2,580
377,67	4,446
377,88	1,726
378,09	5,484
378,29	5,438
378,50	3,209
378,71	6,267
378,92	0,840
379,12	2,672
379,33	2,074
379,54	3,830
379,75	8,676
379,95	5,378
380,16	4,466
380,37	6,536
380,58	3,578
380,78	6,820
380,99	0,135
381,20	3,910
381,41	8,362
381,61	4,678
381,82	5,804
382,03	5,600
382,24	7,252
382,44	4,130
382,65	6,196
382,86	9,199
383,06	8,147
383,27	5,800
383,48	3,353
383,69	8,184
383,89	1,364
384,10	0,983
384,31	4,902
384,51	8,059
384,72	8,837
384,93	1,109
385,14	0,310
385,34	2,708
385,55	4,642
385,76	-0,242
385,96	10,318
386,17	4,243
386,38	1,975
386,59	10,205
386,79	7,941
387,00	10,219
387,21	9,334
387,41	6,495
387,62	5,571
387,83	7,578
388,03	4,392
388,24	4,948
388,45	5,802
388,66	6,992
388,86	3,362
389,07	3,464
389,28	12,875
389,48	5,193
389,69	5,292
389,90	0,574
390,10	1,962
390,31	8,958
390,52	2,873
390,72	3,886
390,93	5,988
391,14	6,363
391,34	4,565
391,55	5,754
391,76	7,697
391,96	8,113
392,17	2,197
392,38	4,632
392,58	4,927
392,79	3,709
393,00	1,882
393,20	3,262
393,41	5,544
393,62	9,048
393,82	1,988
394,03	6,642
394,24	4,628
394,44	8,596
394,65	6,655
394,86	3,468
395,06	8,291
395,27	6,017
395,48	4,111
395,68	2,438
395,89	5,653
396,10	7,670
396,30	1,790
396,51	0,512
396,72	5,954
396,92	-0,116
397,13	7,916
397,34	2,782
397,54	4,607
397,75	3,074
397,95	2,324
398,16	4,859
398,37	5,818
398,57	-1,625
398,78	1,134
398,99	5,801
399,19	7,286
399,40	10,386
399,60	1,378
399,81	7,529
400,02	9,803
400,22	5,908
400,43	5,873
400,64	0,580
400,84	1,162
401,05	6,538
401,25	7,107
401,46	2,741
401,67	8,098
401,87	1,548
402,08	-0,426
402,29	3,729
402,49	9,085
402,70	6,094
402,90	0,047
403,11	3,188
403,32	-1,136
403,52	2,369
403,73	2,843
403,93	6,662
404,14	12,001
404,35	3,557
404,55	0,320
404,76	2,436
404,96	3,637
405,17	7,661
405,38	8,001
405,58	3,854
405,79	9,049
405,99	10,886
406,20	4,637
406,40	4,412
406,61	6,689
406,82	6,566
407,02	2,235
407,23	1,398
407,43	2,153
407,64	-0,945
407,85	2,552
408,05	-2,510
408,26	13,986
408,46	11,263
408,67	3,831
408,87	4,870
409,08	0,996
409,29	11,065
409,49	7,963
409,70	4,142
409,90	4,319
410,11	4,327
410,31	7,415
410,52	4,210
410,72	2,558
410,93	8,869
411,14	2,362
411,34	-3,050
411,55	2,788
411,75	6,018
411,96	5,075
412,16	2,346
412,37	1,509
412,57	6,391
412,78	6,127
412,99	2,272
413,19	5,969
413,40	2,565
413,60	3,729
413,81	1,934
414,01	2,649
414,22	4,754
414,42	1,356
414,63	1,187
414,83	4,790
415,04	9,800
415,24	5,349
415,45	4,402
415,65	4,938
415,86	7,508
416,07	2,718
416,27	7,378
416,48	8,655
416,68	13,438
416,89	-1,031
417,09	6,715
417,30	12,337
417,50	1,357
417,71	6,041
417,91	4,449
418,12	4,687
418,32	5,261
418,53	-1,957
418,73	4,579
418,94	3,259
419,14	7,968
419,35	0,775
419,55	3,604
419,76	8,128
419,96	6,778
420,17	2,827
420,37	3,438
420,58	8,284
420,78	4,288
420,99	1,603
421,19	7,726
421,40	12,835
421,60	8,657
421,81	1,333
422,01	4,613
422,22	7,711
422,42	7,619
422,63	7,601
422,83	5,138
423,04	12,542
423,24	16,043
423,45	3,527
423,65	4,296
423,86	10,472
424,06	8,350
424,27	4,088
424,47	4,060
424,67	0,803
424,88	5,884
425,08	3,527
425,29	9,486
425,49	0,462
425,70	1,660
425,90	3,896
426,11	2,844
426,31	4,393
426,52	8,779
426,72	1,584
426,93	0,742
427,13	10,208
427,33	-0,101
427,54	5,545
427,74	6,358
427,95	10,961
428,15	4,917
428,36	4,240
428,56	2,259
428,77	4,535
428,97	6,495
429,18	2,395
429,38	2,687
429,58	4,705
429,79	6,743
429,99	0,219
430,20	4,333
430,40	7,145
430,61	3,907
430,81	4,858
431,01	8,761
431,22	9,290
431,42	7,682
431,63	-1,636
431,83	5,707
432,04	9,251
432,24	5,570
432,44	5,115
432,65	3,217
432,85	3,290
433,06	3,339
433,26	1,943
433,47	5,089
433,67	2,382
433,87	4,693
434,08	2,332
434,28	-0,452
434,49	4,755
434,69	11,230
434,89	6,417
435,10	3,332
435,30	7,779
435,51	3,749
435,71	3,773
435,91	1,707
436,12	1,244
436,32	2,333
436,53	2,637
436,73	2,133
436,93	5,266
437,14	4,509
437,34	4,040
437,55	1,551
437,75	6,172
437,95	9,445
438,16	1,771
438,36	5,937
438,57	4,864
438,77	2,240
438,97	8,708
439,18	2,683
439,38	5,446
439,58	2,804
439,79	2,743
439,99	-2,260
440,20	6,932
440,40	9,974
440,60	5,143
440,81	0,912
441,01	7,617
441,21	8,518
441,42	3,900
441,62	5,738
441,83	4,886
442,03	1,118
442,23	6,115
442,44	3,865
442,64	5,440
442,84	3,258
443,05	7,474
443,25	1,822
443,45	7,417
443,66	4,855
443,86	2,671
444,06	7,066
444,27	0,903
444,47	8,810
444,67	6,687
444,88	6,947
445,08	5,685
445,28	-0,834
445,49	6,749
445,69	6,303
445,90	6,320
446,10	10,599
446,30	2,109
446,51	6,221
446,71	10,037
446,91	8,131
447,12	13,237
447,32	2,125
447,52	6,053
447,72	10,793
447,93	3,138
448,13	1,796
448,33	11,320
448,54	7,824
448,74	0,335
448,94	4,783
449,15	9,866
449,35	1,664
449,55	7,917
449,76	6,209
449,96	1,094
450,16	6,565
450,37	2,374
450,57	4,656
450,77	4,610
450,98	3,680
451,18	7,057
451,38	6,757
451,58	7,504
451,79	3,309
451,99	3,435
452,19	6,754
452,40	10,972
452,60	3,358
452,80	9,797
453,00	7,372
453,21	1,238
453,41	7,947
453,61	1,439
453,82	8,504
454,02	5,573
454,22	19,173
454,42	7,560
454,63	5,608
454,83	3,168
455,03	11,836
455,24	4,425
455,44	6,014
455,64	4,169
455,84	5,487
456,05	1,417
456,25	0,168
456,45	2,983
456,65	3,974
456,86	7,405
457,06	7,397
457,26	8,813
457,47	12,481
457,67	5,976
457,87	2,164
458,07	7,354
458,28	8,303
458,48	10,795
458,68	1,043
458,88	10,768
459,09	7,229
459,29	14,801
459,49	-2,424
459,69	7,093
459,90	8,295
460,10	8,417
460,30	10,169
460,50	4,594
460,71	8,664
460,91	4,040
461,11	7,784
461,31	9,376
461,52	11,694
461,72	8,791
461,92	3,412
462,12	12,426
462,32	2,991
462,53	5,412
462,73	4,907
462,93	6,549
463,13	10,026
463,34	6,132
463,54	7,364
463,74	6,395
463,94	5,115
464,14	10,492
464,35	6,034
464,55	12,016
464,75	15,545
464,95	6,168
465,16	5,385
465,36	12,756
465,56	5,300
465,76	3,127
465,96	8,351
466,17	8,898
466,37	2,216
466,57	11,704
466,77	10,830
466,97	4,419
467,18	11,319
467,38	11,164
467,58	15,001
467,78	12,026
467,98	12,214
468,19	3,696
468,39	10,506
468,59	4,565
468,79	7,918
468,99	7,835
469,19	6,144
469,40	8,768
469,60	5,929
469,80	5,512
470,00	9,705
470,20	13,121
470,41	4,807
470,61	10,911
470,81	11,895
471,01	7,765
471,21	13,020
471,41	10,402
471,62	8,433
471,82	6,287
472,02	7,480
472,22	7,089
472,42	8,034
472,62	12,217
472,83	4,604
473,03	10,666
473,23	8,422
473,43	13,418
473,63	9,534
473,83	6,975
474,03	8,639
474,24	11,123
474,44	9,508
474,64	8,188
474,84	5,798
475,04	4,916
475,24	11,971
475,45	11,361
475,65	9,876
475,85	13,575
476,05	2,925
476,25	7,744
476,45	10,374
476,65	11,142
476,85	7,860
477,06	11,318
477,26	6,935
477,46	8,367
477,66	10,387
477,86	8,726
478,06	10,790
478,26	16,408
478,46	7,385
478,67	14,652
478,87	8,416
479,07	8,997
479,27	12,494
479,47	7,986
479,67	4,021
479,87	7,673
480,07	13,790
480,28	10,258
480,48	7,404
480,68	14,078
480,88	17,421
481,08	15,214
481,28	10,916
481,48	9,543
481,68	8,851
481,88	6,410
482,08	10,488
482,29	12,548
482,49	6,442
482,69	9,876
482,89	7,731
483,09	15,127
483,29	8,622
483,49	3,936
483,69	10,769
483,89	10,303
484,09	7,619
484,29	7,419
484,50	10,520
484,70	12,730
484,90	9,816
485,10	12,613
485,30	11,942
485,50	15,631
485,70	13,031
485,90	8,408
486,10	6,404
486,30	6,733
486,50	9,580
486,70	9,190
486,90	9,413
487,10	13,757
487,30	11,201
487,51	11,522
487,71	7,731
487,91	10,201
488,11	13,682
488,31	9,425
488,51	10,729
488,71	10,252
488,91	12,166
489,11	9,932
489,31	11,200
489,51	13,073
489,71	11,339
489,91	9,633
490,11	11,856
490,31	14,265
490,51	13,750
490,71	13,949
490,91	12,040
491,11	12,778
491,31	14,642
491,51	11,992
491,72	12,760
491,92	12,944
492,12	16,188
492,32	12,384
492,52	14,258
492,72	9,338
492,92	12,627
493,12	13,338
493,32	11,828
493,52	11,705
493,72	13,441
493,92	13,568
494,12	11,360
494,32	14,322
494,52	13,635
494,72	11,061
494,92	10,981
495,12	15,912
495,32	17,312
495,52	13,861
495,72	12,544
495,92	14,498
496,12	15,624
496,32	15,028
496,52	11,653
496,72	16,717
496,92	15,504
497,12	16,051
497,32	16,552
497,52	13,848
497,72	17,096
497,92	14,521
498,12	13,877
498,32	13,552
498,52	14,390
498,72	13,138
498,92	13,030
499,12	15,679
499,32	11,977
499,52	17,924
499,72	15,215
499,92	18,081
500,12	15,474
500,32	13,627
500,52	16,578
500,72	20,231
500,91	19,707
501,11	15,949
501,31	14,756
501,51	16,942
501,71	17,116
501,91	16,618
502,11	13,978
502,31	18,298
502,51	17,526
502,71	17,289
502,91	12,904
503,11	16,769
503,31	17,776
503,51	10,946
503,71	16,258
503,91	18,446
504,11	15,930
504,31	17,174
504,51	15,636
504,71	20,074
504,91	14,637
505,10	18,604
505,30	16,647
505,50	17,220
505,70	14,000
505,90	18,450
506,10	15,996
506,30	17,670
506,50	17,512
506,70	20,322
506,90	15,441
507,10	15,558
507,30	15,510
507,50	17,266
507,70	19,996
507,89	20,344
508,09	17,422
508,29	15,350
508,49	16,408
508,69	17,731
508,89	16,262
509,09	17,574
509,29	16,677
509,49	20,310
509,69	21,605
509,89	21,108
510,09	19,177
510,28	18,518
510,48	18,966
510,68	17,254
510,88	18,757
511,08	19,494
511,28	17,447
511,48	17,864
511,68	13,422
511,88	23,563
512,07	16,447
512,27	17,218
512,47	17,864
512,67	17,044
512,87	15,199
513,07	18,402
513,27	15,897
513,47	19,050
513,67	16,553
513,86	19,047
514,06	18,325
514,26	18,885
514,46	20,275
514,66	17,203
514,86	20,126
515,06	22,819
515,26	21,513
515,45	18,361
515,65	17,070
515,85	20,353
516,05	17,597
516,25	16,708
516,45	21,619
516,65	15,527
516,84	18,301
517,04	22,060
517,24	18,188
517,44	20,384
517,64	22,085
517,84	22,029
518,04	20,290
518,23	23,116
518,43	23,685
518,63	18,926
518,83	16,180
519,03	19,271
519,23	19,588
519,42	20,312
519,62	20,127
519,82	18,361
520,02	19,483
520,22	22,236
520,42	18,835
520,61	21,449
520,81	20,226
521,01	23,036
521,21	17,958
521,41	19,400
521,61	23,449
521,80	20,494
522,00	20,016
522,20	25,038
522,40	20,747
522,60	17,981
522,79	18,030
522,99	23,629
523,19	17,377
523,39	20,147
523,59	20,808
523,78	22,107
523,98	19,910
524,18	22,016
524,38	17,148
524,58	21,011
524,77	22,208
524,97	22,016
525,17	18,209
525,37	18,360
525,57	24,709
525,76	23,451
525,96	23,906
526,16	21,052
526,36	20,321
526,56	21,407
526,75	22,490
526,95	23,471
527,15	20,954
527,35	21,142
527,55	18,185
527,74	20,484
527,94	21,625
528,14	18,414
528,34	21,484
528,53	17,916
528,73	24,628
528,93	22,427
529,13	17,524
529,32	20,667
529,52	23,605
529,72	21,322
529,92	20,360
530,12	20,126
530,31	21,069
530,51	23,490
530,71	19,580
530,91	27,759
531,10	17,184
531,30	23,152
531,50	19,054
531,70	23,245
531,89	24,142
532,09	19,464
532,29	21,602
532,49	20,727
532,68	23,044
532,88	19,469
533,08	19,930
533,28	23,593
533,47	21,010
533,67	23,736
533,87	20,145
534,06	28,316
534,26	19,445
534,46	20,795
534,66	22,339
534,85	22,450
535,05	17,160
535,25	17,693
535,45	20,746
535,64	24,064
535,84	24,158
536,04	17,364
536,23	23,206
536,43	23,362
536,63	22,348
536,83	20,924
537,02	23,165
537,22	18,360
537,42	22,037
537,61	21,986
537,81	19,496
538,01	23,344
538,20	23,433
538,40	18,613
538,60	20,342
538,80	18,300
538,99	24,070
539,19	21,639
539,39	21,552
539,58	22,780
539,78	20,286
539,98	19,658
540,17	19,563
540,37	23,706
540,57	19,900
540,76	20,677
540,96	16,791
541,16	21,557
541,36	19,790
541,55	17,299
541,75	18,396
541,95	20,378
542,14	17,791
542,34	17,774
542,54	15,001
542,73	20,958
542,93	18,248
543,13	19,207
543,32	19,671
543,52	21,995
543,72	18,376
543,91	20,789
544,11	17,735
544,31	16,278
544,50	18,096
544,70	22,175
544,89	20,401
545,09	20,117
545,29	19,651
545,48	21,032
545,68	16,517
545,88	20,357
546,07	18,329
546,27	19,538
546,47	23,518
546,66	21,124
546,86	20,615
547,06	20,045
547,25	18,805
547,45	20,644
547,64	21,027
547,84	24,041
548,04	22,843
548,23	26,695
548,43	23,310
548,63	23,578
548,82	22,258
549,02	23,176
549,21	20,789
549,41	20,543
549,61	23,241
549,80	20,170
550,00	22,297
550,20	20,198
550,39	22,158
550,59	21,673
550,78	23,129
550,98	20,169
551,18	24,229
551,37	22,884
551,57	20,449
551,76	24,018
551,96	22,209
552,16	21,422
552,35	24,297
552,55	19,380
552,74	20,542
552,94	24,313
553,14	19,651
553,33	23,212
553,53	22,315
553,72	21,751
553,92	23,997
554,12	21,104
554,31	21,767
554,51	21,492
554,70	19,396
554,90	22,350
555,09	24,154
555,29	21,550
555,49	23,185
555,68	24,648
555,88	20,535
556,07	18,490
556,27	25,335
556,46	21,130
556,66	19,265
556,86	26,458
557,05	22,971
557,25	19,584
557,44	21,599
557,64	20,268
557,83	23,636
558,03	22,161
558,22	21,241
558,42	21,702
558,62	22,713
558,81	23,589
559,01	23,246
559,20	23,937
559,40	21,742
559,59	22,395
559,79	21,819
559,98	22,777
560,18	23,158
560,37	23,012
560,57	22,439
560,76	19,846
560,96	19,030
561,16	22,426
561,35	20,851
561,55	25,214
561,74	21,688
561,94	23,220
562,13	22,735
562,33	24,000
562,52	23,862
562,72	20,794
562,91	21,061
563,11	22,612
563,30	22,250
563,50	22,001
563,69	21,861
563,89	20,242
564,08	21,713
564,28	21,356
564,47	23,679
564,67	22,078
564,86	21,808
565,06	21,386
565,25	20,137
565,45	21,020
565,64	24,074
565,84	22,185
566,03	18,274
566,23	22,825
566,42	22,297
566,62	22,489
566,81	20,399
567,01	19,476
567,20	22,236
567,40	21,150
567,59	19,949
567,79	25,176
567,98	24,512
568,18	20,661
568,37	22,536
568,57	21,750
568,76	22,303
568,96	22,319
569,15	18,451
569,35	23,635
569,54	26,009
569,73	22,706
569,93	21,601
570,12	20,815
570,32	23,109
570,51	22,197
570,71	23,476
570,90	22,344
571,10	21,464
571,29	20,793
571,49	20,676
571,68	22,914
571,87	22,925
572,07	22,601
572,26	18,543
572,46	21,183
572,65	22,085
572,85	19,997
573,04	21,510
573,24	21,864
573,43	23,619
573,62	22,908
573,82	21,750
574,01	22,155
574,21	19,200
574,40	20,544
574,60	19,306
574,79	24,961
574,98	19,716
575,18	21,583
575,37	18,535
575,57	21,342
575,76	23,403
575,96	21,711
576,15	22,060
576,34	20,184
576,54	21,551
576,73	22,716
576,93	20,732
577,12	21,523
577,31	21,415
577,51	19,891
577,70	20,950
577,90	20,690
578,09	21,921
578,28	20,011
578,48	20,213
578,67	21,570
578,87	21,027
579,06	20,356
579,25	22,135
579,45	22,740
579,64	20,369
579,84	19,392
580,03	21,419
580,22	23,172
580,42	20,718
580,61	21,832
580,81	21,545
581,00	21,468
581,19	23,594
581,39	20,386
581,58	19,666
581,77	19,585
581,97	23,657
582,16	20,480
582,35	20,352
582,55	20,931
582,74	23,374
582,94	21,626
583,13	21,271
583,32	20,679
583,52	21,820
583,71	21,774
583,90	21,090
584,10	22,632
584,29	22,754
584,48	19,518
584,68	20,549
584,87	23,060
585,06	20,577
585,26	20,434
585,45	21,116
585,65	22,994
585,84	20,119
586,03	20,398
586,23	20,647
586,42	22,227
586,61	25,707
586,81	22,595
587,00	20,981
587,19	22,484
587,39	22,628
587,58	20,701
587,77	21,312
587,97	19,770
588,16	21,598
588,35	20,925
588,54	21,827
588,74	22,619
588,93	24,457
589,12	21,124
589,32	20,696
589,51	20,953
589,70	19,868
589,90	19,135
590,09	20,392
590,28	24,731
590,48	18,884
590,67	22,565
590,86	20,792
591,06	22,068
591,25	23,417
591,44	23,204
591,63	21,372
591,83	21,608
592,02	21,687
592,21	20,939
592,41	21,420
592,60	23,534
592,79	21,662
592,98	21,787
593,18	20,805
593,37	21,035
593,56	22,025
593,76	21,760
593,95	19,792
594,14	20,436
594,33	24,221
594,53	21,506
594,72	19,796
594,91	22,597
595,10	21,160
595,30	22,469
595,49	20,515
595,68	23,348
595,88	23,469
596,07	22,394
596,26	21,817
596,45	20,172
596,65	20,517
596,84	20,130
597,03	23,236
597,22	19,829
597,42	23,048
597,61	21,612
597,80	23,137
597,99	20,842
598,19	22,343
598,38	21,634
598,57	20,766
598,76	22,911
598,95	20,976
599,15	21,171
599,34	21,235
599,53	19,617
599,72	21,005
599,92	24,051
600,11	22,273
600,30	21,773
600,49	23,940
600,69	21,274
600,88	22,306
601,07	20,969
601,26	20,374
601,45	21,765
601,65	20,368
601,84	22,242
602,03	21,174
602,22	22,419
602,42	22,324
602,61	21,293
602,80	21,876
602,99	21,088
603,18	20,711
603,38	23,474
603,57	19,826
603,76	19,690
603,95	19,822
604,14	22,599
604,34	19,877
604,53	19,857
604,72	21,687
604,91	21,292
605,10	22,393
605,29	22,614
605,49	19,702
605,68	22,356
605,87	26,962
606,06	20,745
606,25	21,175
606,45	21,834
606,64	22,522
606,83	23,326
607,02	20,571
607,21	23,167
607,40	20,661
607,60	21,300
607,79	20,983
607,98	20,534
608,17	21,079
608,36	20,147
608,55	20,845
608,75	22,889
608,94	21,502
609,13	19,165
609,32	19,973
609,51	21,601
609,70	22,234
609,89	20,192
610,09	17,543
610,28	19,799
610,47	19,893
610,66	20,016
610,85	17,525
611,04	22,767
611,23	18,560
611,43	17,802
611,62	19,516
611,81	18,607
612,00	21,531
612,19	19,502
612,38	20,720
612,57	21,608
612,77	21,632
612,96	19,753
613,15	20,027
613,34	21,207
613,53	21,201
613,72	21,024
613,91	19,631
614,10	21,440
614,29	22,596
614,49	18,946
614,68	20,579
614,87	20,942
615,06	24,437
615,25	19,677
615,44	21,791
615,63	20,883
615,82	20,884
616,01	23,519
616,21	19,293
616,40	22,369
616,59	23,783
616,78	20,219
616,97	20,849
617,16	21,215
617,35	21,687
617,54	20,620
617,73	22,209
617,92	21,816
618,11	23,419
618,31	22,581
618,50	22,784
618,69	21,282
618,88	22,023
619,07	18,357
619,26	21,270
619,45	20,377
619,64	18,842
619,83	19,813
620,02	20,759
620,21	23,443
620,40	22,515
620,59	22,472
620,78	20,246
620,97	21,542
621,17	24,060
621,36	20,001
621,55	19,111
621,74	22,154
621,93	23,039
622,12	21,991
622,31	19,439
622,50	21,076
622,69	23,526
622,88	22,241
623,07	22,675
623,26	22,874
623,45	24,735
623,64	21,580
623,83	21,152
624,02	21,853
624,21	21,720
624,40	20,482
624,59	19,526
624,78	21,293
624,97	25,132
625,16	19,562
625,35	19,612
625,54	19,876
625,73	20,280
625,92	21,705
626,12	24,262
626,31	22,294
626,50	22,552
626,69	21,638
626,88	20,896
627,07	21,870
627,26	21,115
627,45	22,178
627,64	21,116
627,83	22,210
628,02	19,877
628,21	21,644
628,40	21,610
628,59	22,802
628,78	20,071
628,97	22,678
629,16	20,345
629,35	22,280
629,54	22,349
629,73	22,513
629,92	20,532
630,10	22,559
630,29	22,858
630,48	21,204
630,67	19,743
630,86	23,173
631,05	20,273
631,24	22,632
631,43	20,558
631,62	21,119
631,81	20,755
632,00	20,554
632,19	19,564
632,38	21,615
632,57	22,636
632,76	18,427
632,95	21,579
633,14	23,970
633,33	22,530
633,52	21,462
633,71	22,389
633,90	19,582
634,09	21,432
634,28	21,894
634,47	22,292
634,66	21,642
634,85	20,914
635,04	23,730
635,22	20,512
635,41	20,938
635,60	23,989
635,79	24,866
635,98	19,047
636,17	21,042
636,36	19,560
636,55	19,674
636,74	20,252
636,93	21,407
637,12	19,810
637,31	19,650
637,50	20,171
637,69	22,701
637,87	22,287
638,06	19,133
638,25	19,709
638,44	21,496
638,63	19,924
638,82	19,480
639,01	20,840
639,20	20,496
639,39	22,051
639,58	21,387
639,77	20,418
639,95	20,149
640,14	22,575
640,33	21,305
640,52	21,009
640,71	23,613
640,90	20,379
641,09	22,042
641,28	20,236
641,47	21,701
641,66	21,151
641,84	23,159
642,03	18,446
642,22	20,870
642,41	23,714
642,60	20,788
642,79	21,942
642,98	22,016
643,17	22,240
643,35	19,608
643,54	20,136
643,73	21,320
643,92	21,046
644,11	20,790
644,30	19,789
644,49	22,132
644,67	19,809
644,86	21,170
645,05	20,707
645,24	20,463
645,43	19,909
645,62	20,074
645,81	19,671
645,99	20,442
646,18	22,745
646,37	21,715
646,56	20,517
646,75	21,687
646,94	22,837
647,13	19,222
647,31	20,620
647,50	19,999
647,69	22,597
647,88	21,692
648,07	22,250
648,26	25,047
648,44	20,324
648,63	22,995
648,82	19,925
649,01	23,006
649,20	19,649
649,38	21,951
649,57	21,720
649,76	20,372
649,95	21,301
650,14	20,996
650,33	21,252
650,51	21,057
650,70	21,376
650,89	21,035
651,08	21,142
651,27	22,123
651,45	20,578
651,64	20,323
651,83	20,991
652,02	20,428
652,21	20,204
652,39	22,455
652,58	22,162
652,77	22,992
652,96	20,518
653,15	22,266
653,33	21,995
653,52	21,150
653,71	21,835
653,90	22,673
654,09	20,027
654,27	20,685
654,46	22,451
654,65	20,963
654,84	21,027
655,02	21,996
655,21	20,175
655,40	22,147
655,59	20,989
655,77	21,482
655,96	21,051
656,15	22,020
656,34	21,479
656,53	20,949
656,71	21,833
656,90	22,502
657,09	21,801
657,28	22,126
657,46	20,922
657,65	20,486
657,84	20,621
658,03	21,508
658,21	22,224
658,40	20,058
658,59	19,723
658,78	21,379
658,96	19,795
659,15	22,754
659,34	20,165
659,52	20,184
659,71	21,748
659,90	21,182
660,09	21,192
660,27	21,981
660,46	24,734
660,65	22,631
660,84	20,402
661,02	21,390
661,21	22,939
661,40	24,096
661,58	21,438
661,77	21,492
661,96	20,044
662,15	21,674
662,33	21,972
662,52	22,060
662,71	20,655
662,89	20,183
663,08	20,989
663,27	22,743
663,45	21,424
663,64	22,128
663,83	21,191
664,02	19,643
664,20	21,934
664,39	20,794
664,58	21,609
664,76	20,013
664,95	21,313
665,14	22,641
665,32	20,793
665,51	21,822
665,70	20,984
665,88	23,162
666,07	21,026
666,26	23,648
666,44	22,909
666,63	18,730
666,82	19,492
667,00	20,539
667,19	20,403
667,38	23,281
667,56	21,436
667,75	22,388
667,94	21,243
668,12	21,731
668,31	23,124
668,50	22,103
668,68	22,908
668,87	20,927
669,06	21,596
669,24	22,889
669,43	20,942
669,62	21,333
669,80	19,806
669,99	20,520
670,18	20,097
670,36	19,404
670,55	22,452
670,74	19,760
670,92	18,443
671,11	23,821
671,29	19,642
671,48	20,695
671,67	20,582
671,85	21,742
672,04	21,028
672,23	20,463
672,41	19,912
672,60	21,736
672,78	21,093
672,97	20,889
673,16	21,733
673,34	22,151
673,53	20,368
673,71	21,218
673,90	22,736
674,09	21,543
674,27	22,125
674,46	21,234
674,64	21,528
674,83	20,394
675,02	19,725
675,20	22,767
675,39	20,887
675,57	19,668
675,76	21,485
675,95	23,746
676,13	20,892
676,32	21,773
676,50	20,464
676,69	19,314
676,88	21,636
677,06	19,554
677,25	22,175
677,43	23,067
677,62	22,421
677,80	21,025
677,99	21,247
678,18	22,407
678,36	22,827
678,55	20,700
678,73	18,790
678,92	21,031
679,10	20,737
679,29	20,352
679,48	18,165
679,66	20,872
679,85	21,593
680,03	20,894
680,22	19,344
680,40	20,940
680,59	20,898
680,77	21,220
680,96	22,017
681,15	21,300
681,33	23,103
681,52	21,450
681,70	21,428
681,89	23,873
682,07	20,857
682,26	20,640
682,44	22,842
682,63	20,044
682,81	22,985
683,00	21,037
683,18	19,049
683,37	21,888
683,55	19,689
683,74	22,979
683,92	27,791
684,11	21,002
684,29	20,586
684,48	21,296
684,67	19,850
684,85	21,424
685,04	22,596
685,22	20,926
685,41	21,488
685,59	20,714
685,78	18,902
685,96	21,247
686,15	20,188
686,33	20,407
686,52	20,369
686,70	20,887
686,89	20,438
687,07	20,260
687,26	20,707
687,44	21,559
687,62	20,689
687,81	21,670
687,99	21,853
688,18	22,159
688,36	22,041
688,55	23,506
688,73	22,264
688,92	21,155
689,10	20,750
689,29	22,388
689,47	22,649
689,66	20,026
689,84	21,696
690,03	25,314
690,21	20,324
690,40	19,940
690,58	20,345
690,76	18,871
690,95	21,749
691,13	19,729
691,32	21,386
691,50	21,292
691,69	23,020
691,87	21,187
692,06	20,792
692,24	20,379
692,43	22,199
692,61	21,061
692,79	20,824
692,98	19,339
693,16	23,149
693,35	19,810
693,53	22,668
693,72	21,779
693,90	24,397
694,08	20,391
694,27	21,707
694,45	22,479
694,64	23,775
694,82	20,279
695,01	21,240
695,19	20,072
695,37	20,835
695,56	21,345
695,74	21,314
695,93	22,083
696,11	20,147
696,29	21,370
696,48	22,803
696,66	23,491
696,85	20,153
697,03	21,064
697,21	22,195
697,40	24,770
697,58	21,400
697,77	22,508
697,95	20,982
698,13	20,641
698,32	20,372
698,50	19,974
698,69	20,118
698,87	22,789
699,05	23,132
699,24	21,599
699,42	21,056
699,60	18,433
699,79	20,767
699,97	19,306
700,16	19,827
700,34	25,981
700,52	20,601
700,71	21,119
700,89	20,454
701,07	19,446
701,26	21,088
701,44	19,989
701,63	21,337
701,81	21,854
701,99	21,127
702,18	20,966
702,36	20,510
702,54	23,085
702,73	21,248
702,91	19,358
703,09	19,116
703,28	20,384
703,46	20,531
703,64	22,496
703,83	21,840
704,01	21,219
704,19	21,318
704,38	19,401
704,56	20,997
704,74	22,754
704,93	19,909
705,11	21,175
705,29	21,314
705,48	24,113
705,66	20,387
705,84	21,076
706,03	19,186
706,21	20,979
706,39	20,795
706,58	19,791
706,76	21,186
706,94	22,039
707,12	21,196
707,31	20,610
707,49	21,600
707,67	20,433
707,86	24,459
708,04	22,387
708,22	20,318
708,41	21,763
708,59	19,563
708,77	21,669
708,95	21,102
709,14	23,732
709,32	22,373
709,50	20,475
709,69	21,971
709,87	20,403
710,05	18,534
710,23	18,684
710,42	20,413
710,60	21,852
710,78	24,072
710,97	20,475
711,15	21,129
711,33	21,363
711,51	19,956
711,70	20,567
711,88	20,640
712,06	22,529
712,24	22,523
712,43	21,282
712,61	20,087
712,79	21,265
712,97	19,807
713,16	21,294
713,34	18,943
713,52	22,321
713,70	22,559
713,89	19,809
714,07	20,018
714,25	22,212
714,43	22,454
714,62	20,275
714,80	19,739
714,98	18,100
715,16	20,491
715,35	18,843
715,53	20,350
715,71	23,929
715,89	24,561
716,07	22,868
716,26	21,339
716,44	22,785
716,62	22,452
716,80	21,652
716,99	21,202
717,17	24,562
717,35	21,288
717,53	19,616
717,71	21,368
717,90	23,071
718,08	22,960
718,26	21,123
718,44	23,831
718,62	23,370
718,81	21,745
718,99	19,732
719,17	20,753
719,35	20,971
719,53	21,238
719,72	17,631
719,90	21,217
720,08	20,084
720,26	24,278
720,44	20,955
720,62	20,593
720,81	23,567
720,99	24,105
721,17	20,568
721,35	22,037
721,53	19,424
721,72	23,862
721,90	20,990
722,08	20,473
722,26	21,957
722,44	22,096
722,62	20,468
722,81	19,350
722,99	20,025
723,17	20,011
723,35	21,627
723,53	21,542
723,71	22,457
723,89	25,528
724,08	21,238
724,26	21,327
724,44	22,840
724,62	22,290
724,80	19,530
724,98	19,943
725,16	24,099
725,35	21,782
725,53	21,946
725,71	22,144
725,89	20,165
726,07	25,972
726,25	24,964
726,43	19,531
726,61	21,376
726,80	23,308
726,98	20,901
727,16	18,942
727,34	22,951
727,52	19,796
727,70	21,160
727,88	20,260
728,06	18,347
728,25	19,234
728,43	20,301
728,61	20,877
728,79	21,557
728,97	22,094
729,15	21,438
729,33	23,290
729,51	23,403
729,69	21,882
729,87	21,662
730,06	22,827
730,24	22,828
730,42	24,554
730,60	20,541
730,78	22,255
730,96	22,086
731,14	21,690
731,32	20,955
731,50	20,247
731,68	19,410
731,86	23,643
732,04	21,093
732,22	20,541
732,41	29,927
732,59	21,528
732,77	21,928
732,95	21,012
733,13	23,241
733,31	22,182
733,49	19,873
733,67	21,687
733,85	23,358
734,03	20,227
734,21	20,798
734,39	22,086
734,57	21,235
734,75	22,909
734,93	19,290
735,11	21,498
735,29	19,212
735,47	22,780
735,65	20,130
735,84	19,860
736,02	20,996
736,20	24,981
736,38	19,539
736,56	22,215
736,74	21,199
736,92	21,181
737,10	20,817
737,28	23,869
737,46	22,011
737,64	21,045
737,82	19,830
738,00	21,678
738,18	22,204
738,36	24,357
738,54	20,664
738,72	21,879
738,90	20,998
739,08	21,174
739,26	19,819
739,44	21,203
739,62	24,358
739,80	23,554
739,98	19,147
740,16	20,526
740,34	20,434
740,52	25,853
740,70	20,808
740,88	21,485
741,06	22,443
741,24	22,228
741,42	20,936
741,60	20,312
741,78	22,465
741,96	22,316
742,14	22,632
742,32	21,617
742,50	19,590
742,68	23,251
742,86	21,004
743,04	20,019
743,21	23,340
743,39	22,191
743,57	19,883
743,75	23,065
743,93	18,605
744,11	17,502
744,29	22,103
744,47	20,754
744,65	21,481
744,83	20,698
745,01	18,726
745,19	20,817
745,37	24,996
745,55	23,130
745,73	23,072
745,91	19,501
746,09	20,960
746,27	19,716
746,45	20,453
746,62	21,769
746,80	18,900
746,98	20,866
747,16	18,455
747,34	20,262
747,52	22,188
747,70	23,192
747,88	22,089
748,06	21,762
748,24	21,933
748,42	24,721
748,60	19,968
748,78	19,098
748,95	24,605
749,13	24,966
749,31	20,498
749,49	22,322
749,67	22,803
749,85	22,766
750,03	22,960
750,21	21,230
750,39	23,705
750,57	19,810
750,74	22,845
750,92	20,822
751,10	21,677
751,28	18,679
751,46	23,277
751,64	22,428
751,82	22,017
752,00	23,667
752,17	23,152
752,35	23,786
752,53	23,332
752,71	20,904
752,89	22,460
753,07	20,725
753,25	21,314
753,43	20,823
753,60	24,949
753,78	22,430
753,96	22,418
754,14	23,814
754,32	23,492
754,50	22,597
754,68	24,370
754,85	19,663
755,03	22,411
755,21	23,304
755,39	24,459
755,57	21,271
755,75	22,608
755,92	23,111
756,10	23,051
756,28	21,598
756,46	20,897
756,64	21,580
756,82	22,980
756,99	20,975
757,17	20,305
757,35	20,332
757,53	25,101
757,71	25,672
757,89	20,187
758,06	22,733
758,24	23,456
758,42	22,690
758,60	20,278
758,78	22,328
758,95	23,037
759,13	23,897
759,31	22,889
759,49	19,885
759,67	22,128
759,84	19,706
760,02	22,186
760,20	21,148
760,38	23,223
760,56	18,629
760,73	21,008
760,91	19,120
761,09	23,370
761,27	20,466
761,45	21,842
761,62	18,601
761,80	19,555
761,98	20,962
762,16	24,699
762,33	18,744
762,51	22,100
762,69	19,796
762,87	20,649
763,05	23,363
763,22	21,904
763,40	22,366
763,58	21,584
763,76	20,031
763,93	22,101
764,11	24,105
764,29	22,459
764,47	22,960
764,64	23,369
764,82	23,391
765,00	20,767
765,18	19,955
765,35	20,992
765,53	19,362
765,71	23,526
765,89	20,958
766,06	20,075
766,24	21,820
766,42	20,441
766,60	20,885
766,77	20,966
766,95	20,064
767,13	21,724
767,30	21,127
767,48	20,106
767,66	19,352
767,84	20,227
768,01	22,662
768,19	22,071
768,37	21,345
768,54	21,679
768,72	22,276
768,90	20,908
769,08	22,483
769,25	19,955
769,43	21,087
769,61	19,852
769,78	22,508
769,96	20,885
770,14	22,386
770,31	23,868
770,49	25,592
770,67	21,426
770,85	20,914
771,02	21,783
771,20	21,232
771,38	23,598
771,55	22,417
771,73	17,899
771,91	21,990
772,08	22,649
772,26	21,197
772,44	21,136
772,61	22,769
772,79	20,406
772,97	20,349
773,14	18,794
773,32	23,111
773,50	21,179
773,67	21,747
773,85	24,078
774,03	24,355
774,20	21,359
774,38	20,853
774,56	20,994
774,73	19,689
774,91	18,815
775,09	20,232
775,26	24,006
775,44	24,312
775,61	21,561
775,79	21,335
775,97	23,663
776,14	20,345
776,32	23,135
776,50	21,019
776,67	22,269
776,85	21,730
777,03	18,781
777,20	22,291
777,38	23,534
777,55	23,748
777,73	22,266
777,91	18,757
778,08	21,409
778,26	19,432
778,43	22,129
778,61	20,722
778,79	19,993
778,96	22,116
779,14	21,486
779,32	20,758
779,49	18,598
779,67	25,180
779,84	22,545
780,02	21,523
780,20	20,587
780,37	23,712
780,55	16,618
780,72	20,608
780,90	19,764
781,07	25,022
781,25	24,125
781,43	22,690
781,60	20,002
781,78	27,525
781,95	23,026
782,13	21,862
782,30	23,106
782,48	23,522
782,66	19,636
782,83	22,204
783,01	29,955
783,18	22,021
783,36	25,120
783,53	23,207
783,71	17,825
783,89	21,272
784,06	23,426
784,24	21,102
784,41	21,780
784,59	19,580
784,76	25,606
784,94	18,885
785,11	23,690
785,29	22,289
785,46	19,959
785,64	20,500
785,82	24,160
785,99	24,451
786,17	24,240
786,34	19,157
786,52	25,586
786,69	24,850
786,87	20,479
787,04	20,163
787,22	22,599
787,39	22,613
787,57	24,692
787,74	19,246
787,92	25,723
788,09	24,303
788,27	24,238
788,44	20,988
788,62	27,184
788,79	19,590
788,97	22,965
789,14	23,708
789,32	21,562
789,49	19,755
789,67	22,190
789,84	17,639
790,02	25,574
790,19	18,694
790,37	23,541
790,54	22,544
790,72	27,100
790,89	25,700
791,07	26,532
791,24	19,142
791,42	25,078
791,59	24,634
791,77	19,549
791,94	21,664
792,12	20,937
792,29	22,712
792,47	23,674
792,64	22,868
792,81	23,958
792,99	19,771
793,16	22,913
793,34	20,209
793,51	22,717
793,69	24,022
793,86	20,143
794,04	25,132
794,21	25,678
794,39	18,740
794,56	20,869
794,73	25,850
794,91	27,578
795,08	21,375
795,26	21,064
795,43	19,995
795,61	25,087
795,78	20,448
795,95	25,312
796,13	24,252
796,30	24,989
796,48	18,012
796,65	20,999
796,83	24,217
797,00	22,901
797,17	23,451
797,35	20,856
797,52	22,919
797,70	23,756
797,87	23,899
798,04	26,225
798,22	18,849
798,39	22,441
798,57	24,293
798,74	22,081
798,91	21,209
799,09	22,908
799,26	26,469
799,44	25,198
799,61	20,063
799,78	19,891
799,96	24,820
800,13	20,912
800,31	27,913
800,48	26,099
800,65	27,237
800,83	26,011
801,00	21,724
801,17	22,129
801,35	26,263
801,52	26,596
801,70	25,486
801,87	21,589
802,04	24,343
802,22	18,597
802,39	22,908
802,56	26,680
802,74	26,824
802,91	20,527
803,08	23,170
803,26	23,656
803,43	27,472
803,61	18,923
803,78	23,588
803,95	24,714
804,13	25,016
804,30	20,431
804,47	26,351
804,65	23,172
804,82	24,790
804,99	23,933
805,17	20,818
805,34	31,395
805,51	28,507
805,69	21,870
805,86	25,645
806,03	32,941
806,21	26,191
806,38	27,132
806,55	20,473
806,72	25,034
806,90	29,047
807,07	22,545
807,24	21,643
807,42	20,409
807,59	23,204
807,76	20,008
807,94	23,455
808,11	26,673
808,28	30,617
808,45	23,243
808,63	20,937
808,80	29,348
808,97	22,372
809,15	23,415
809,32	21,954
809,49	23,753
809,67	26,402
809,84	26,511
810,01	28,855
810,18	33,970
810,36	28,172
810,53	22,771
810,70	24,410
810,87	22,256
811,05	26,230
811,22	23,569
811,39	19,858
811,57	27,504
811,74	24,468
811,91	26,055
812,08	22,897
812,26	21,637
812,43	20,355
812,60	29,432
812,77	22,933
812,95	25,659
813,12	23,112
813,29	22,556
813,46	25,921
813,64	27,261
813,81	25,376
813,98	24,773
814,15	28,149
814,32	28,348
814,50	23,429
814,67	24,408
814,84	28,506
815,01	22,912
815,19	20,647
815,36	22,350
815,53	22,500
815,70	21,994
815,87	30,226
816,05	23,367
816,22	28,446
816,39	27,890
816,56	29,267
816,74	27,312
816,91	25,529
817,08	30,127
817,25	30,445
817,42	26,957
817,60	26,297
817,77	31,606
817,94	23,103
818,11	23,084
818,28	20,807
818,45	26,539
818,63	23,460
818,80	29,227
818,97	21,417
819,14	25,631
819,31	30,369
819,49	25,934
819,66	19,742
819,83	32,654
820,00	28,224
820,17	20,066
820,34	24,502
820,52	26,829
820,69	28,005
820,86	23,189
821,03	27,693
821,20	28,624
821,37	31,379
821,55	25,022
821,72	17,957
821,89	28,310
822,06	26,910
822,23	18,763
822,40	23,110
822,57	30,614
822,75	28,691
822,92	17,987
823,09	27,861
823,26	29,593
823,43	29,033
823,60	21,966
823,77	21,738
823,94	32,917
824,12	31,182
824,29	19,230
824,46	29,932
824,63	39,516
824,80	30,188
824,97	23,316
825,14	26,234
825,31	26,598
825,49	24,439
825,66	13,040
825,83	23,781
826,00	26,553
826,17	36,798
826,34	25,895
826,51	19,734
826,68	21,234
826,85	23,229
827,02	22,949
827,20	24,081
827,37	22,693
827,54	23,679
827,71	25,776
827,88	28,626
828,05	27,018
828,22	28,435
828,39	27,709
828,56	25,200
828,73	27,715
828,90	24,756
829,07	21,950
829,25	23,851
829,42	23,776
829,59	14,891
829,76	21,614
829,93	27,931
830,10	27,704
830,27	24,824
830,44	19,759
830,61	14,368
830,78	27,007
830,95	29,091
831,12	24,577
831,29	18,799
831,46	11,781
831,63	19,389
831,80	30,572
831,97	20,829
832,14	29,355
832,31	31,127
832,48	21,897
832,65	28,421
832,83	23,894
833,00	28,911
833,17	22,247
833,34	26,155
833,51	26,649
833,68	34,589
833,85	27,341
834,02	16,897
834,19	30,541
834,36	30,122
834,53	21,501
834,70	20,276
834,87	36,770
835,04	26,030
835,21	25,928
835,38	28,740
835,55	21,197
835,72	41,508
835,89	22,904
836,06	23,482
836,23	42,986
836,40	22,580
836,57	20,608
836,74	31,459
836,91	25,681
837,08	38,986
837,25	23,683
837,42	24,564
837,59	22,111
837,76	29,826
837,93	27,492
838,09	26,204
838,26	25,072
838,43	38,483
838,60	31,334
838,77	25,978
838,94	28,662
839,11	41,710
839,28	32,536
839,45	26,633
839,62	24,729
839,79	23,678
839,96	28,134
840,13	26,849
840,30	24,007
840,47	22,110
840,64	34,672
840,81	25,837
840,98	20,092
841,15	35,814
841,32	23,775
841,48	34,133
841,65	32,017
841,82	24,642
841,99	29,025
842,16	30,507
842,33	22,130
842,50	37,892
842,67	12,338
842,84	24,225
843,01	32,290
843,18	23,155
843,35	28,468
843,52	25,609
843,68	33,290
843,85	28,838
844,02	16,325
844,19	23,082
844,36	30,203
844,53	22,680
844,70	12,024
844,87	42,614
845,04	36,138
845,21	13,721
845,37	34,988
845,54	23,659
845,71	32,257
845,88	45,800
846,05	22,078
846,22	19,311
846,39	31,625
846,56	33,490
846,72	11,524
846,89	26,457
847,06	39,322
847,23	36,788
847,40	12,987
847,57	23,014
847,74	20,802
847,90	42,452
848,07	31,781
848,24	32,162
848,41	37,706
848,58	51,496
848,75	33,744
848,92	10,305
849,08	34,217
849,25	24,546
849,42	20,441
849,59	24,402
849,76	21,115
849,93	37,370
850,09	34,107
850,26	9,747
850,43	37,133
850,60	14,803
850,77	17,918
850,94	21,731
851,10	20,434
851,27	30,960
851,44	31,750
851,61	16,151
851,78	52,329
851,95	38,638
852,11	21,789
852,28	15,948
852,45	32,621
852,62	48,352
852,79	45,154
852,95	22,106
853,12	40,068
853,29	25,423
853,46	22,474
853,63	28,461
853,79	22,653
853,96	26,713
854,13	39,164
854,30	28,299
854,46	52,528
854,63	24,180
854,80	31,505
854,97	28,118
855,14	54,796
855,30	50,346
855,47	42,498
855,64	34,404
855,81	23,841
855,97	48,719
856,14	34,797
856,31	17,557
856,48	41,838
856,65	58,250
856,81	27,139
856,98	17,943
857,15	10,159
857,32	52,351
857,48	24,945
857,65	45,142
857,82	50,271
857,99	45,699
858,15	38,149
858,32	28,282
858,49	21,660
858,65	53,011
858,82	34,653
858,99	34,729
859,16	41,323
859,32	39,218
859,49	38,371
859,66	39,058
859,83	43,551
859,99	25,063
860,16	22,040
860,33	29,372
860,49	34,882
860,66	31,944
860,83	34,263
861,00	28,363
861,16	44,603
861,33	41,753
861,50	20,795
861,66	42,436
861,83	52,435
862,00	27,449
862,16	14,399
862,33	38,600
862,50	65,108
862,67	45,677
862,83	35,223
863,00	28,464
863,17	52,837
863,33	31,396
863,50	12,037
863,67	47,320
863,83	40,817
864,00	40,769
864,17	15,011
864,33	14,849
864,50	21,512
864,67	42,477
864,83	13,867
865,00	38,027
865,17	21,555
865,33	46,968
865,50	30,414
865,67	44,120
865,83	42,383
866,00	63,134
866,17	36,054
866,33	42,462
866,50	31,551
866,66	29,184
866,83	34,512
867,00	34,358
867,16	70,071
867,33	96,761
867,50	31,255
867,66	35,323
867,83	47,881
868,00	40,656
868,16	27,869
868,33	33,868
868,49	18,370
868,66	73,781
868,83	38,745
868,99	43,811
869,16	82,502
869,32	68,988
869,49	47,321
869,66	28,581
869,82	53,554
869,99	71,963
870,15	36,243
870,32	52,721
870,49	84,655
870,65	86,619
870,82	46,638
870,98	44,646
871,15	70,400
871,32	59,197
871,48	40,367
871,65	14,701
871,81	52,771
871,98	22,659
872,15	29,837
872,31	34,038
872,48	75,426
872,64	45,867
872,81	43,768
872,97	18,718
873,14	110,120
873,31	48,620
873,47	55,795
873,64	61,495
873,80	79,491
873,97	97,604
874,13	47,899
874,30	31,513
874,46	45,606
874,63	67,326
874,80	23,774
874,96	35,174
875,13	79,800
875,29	41,054
875,46	68,383
875,62	17,216
875,79	86,755
875,95	26,269
876,12	12,146
876,28	9,832
876,45	108,523
876,61	43,495
876,78	30,692
876,94	7,788
877,11	69,464
877,27	148,317
877,44	70,579
877,60	57,435
877,77	69,029
877,94	149,319
878,10	28,869
878,27	64,817
878,43	76,392
878,60	40,699
878,76	94,169
878,93	85,435
879,09	28,513
879,26	129,581
879,42	80,009
879,58	40,080
879,75	110,270
879,91	101,599
880,08	21,584
880,24	67,299
880,41	15,544
880,57	63,002
880,74	83,005
880,90	42,505
881,07	71,940
881,23	109,579
881,40	85,783
881,56	54,110
881,73	159,218
881,89	54,878
882,06	40,035
882,22	146,165
882,38	96,747
882,55	119,135
882,71	65,733
882,88	26,520
883,04	82,241
883,21	125,398
883,37	119,526
883,54	81,521
883,70	192,834
883,86	105,530
884,03	119,187
884,19	52,239
884,36	106,609
884,52	154,033
884,69	86,649
884,85	16,451
885,01	82,586
885,18	136,554
885,34	57,332
885,51	-2,196
885,67	106,114
>>>>> Data<<<<< Espectral Procesado Extremo
