Fichero De Datos De SpectraSuite
++++++++++++++++++++++++++++++++++++
Fecha: Wed Apr 22 09:05:46 CEST 2009
Usuario: evoflor
Presente Oscuro Del Espectro: Sí
La Referencia de Presente Del Espectro De: Sí
Muestreados de los componentes de Número de espectros: 1
Espectrómetros: USB4F02353
Tiempo de integración (usec): 500000 (USB4F02353)
Promedio de Espectros Hechos un: 5 (USB4F02353)
El Alisar Del Furgón: 0 (USB4F02353)
Párrafo de de Corregir del la del del de Eléctrica del obscuridad: Sí (USB4F02353)
Estrobo/Lámpara Permitido: No (USB4F02353)
Correct for Detector Non-linearity: No (USB4F02353)
Párrafo de de Corregir del la del del de Externa del luz: No (USB4F02353)
Procesado del espectro de Número de pixeles en: 3648
>>>>> Comienza Data<<<<< Espectral Procesado Del EL
177,79	928,410
178,00	928,410
178,22	928,410
178,44	-9523,632
178,66	590,858
178,88	123,297
179,09	773,265
179,31	214,234
179,53	-5801,148
179,75	316,746
179,96	-397,599
180,18	338,063
180,40	-226,833
180,62	-200,916
180,83	513,731
181,05	-956,489
181,27	-313,987
181,49	-113,094
181,70	-323,900
181,92	506,294
182,14	190,877
182,36	-902,055
182,58	266,959
182,79	-945,179
183,01	-18271,624
183,23	420,688
183,45	-105,445
183,66	149,173
183,88	988,239
184,10	843,695
184,32	551,114
184,53	-271,039
184,75	590,977
184,97	-189,731
185,18	831,855
185,40	352,251
185,62	-892,286
185,84	2059,813
186,05	5059,333
186,27	-4747,187
186,49	-1113,921
186,71	214,397
186,92	400,151
187,14	1981,101
187,36	325,151
187,58	935,668
187,79	-699,400
188,01	-1612,728
188,23	122,741
188,45	171,439
188,66	74,675
188,88	261,319
189,10	-471,471
189,31	-99,051
189,53	-30,168
189,75	1199,151
189,97	134,609
190,18	2042,750
190,40	1496,666
190,62	272,918
190,83	531,151
191,05	-327,707
191,27	8152,548
191,49	526,286
191,70	744,277
191,92	624,108
192,14	462,447
192,35	-2142,967
192,57	-1008,342
192,79	-2822,586
193,01	620,178
193,22	-551,100
193,44	-807,724
193,66	407,114
193,87	394,861
194,09	153,959
194,31	234,109
194,53	-397,424
194,74	353,647
194,96	143,836
195,18	883,129
195,39	-1282,405
195,61	-361,344
195,83	2924,983
196,04	300,413
196,26	191,889
196,48	2605,700
196,70	610,060
196,91	193,274
197,13	-167,452
197,35	239,358
197,56	-671,227
197,78	5442,048
198,00	370,570
198,21	342,000
198,43	860,989
198,65	312,448
198,86	158,923
199,08	1136,748
199,30	227,956
199,51	1246,206
199,73	-1913,225
199,95	276,573
200,16	526,252
200,38	221,171
200,60	2202,327
200,81	-657,290
201,03	10654,545
201,25	756,237
201,46	-306,021
201,68	625,598
201,90	615,053
202,11	415,279
202,33	144,476
202,55	174,555
202,76	738,634
202,98	518,456
203,20	349,677
203,41	-1555,517
203,63	604,975
203,85	174,540
204,06	-615,428
204,28	198,576
204,50	-370,609
204,71	470,875
204,93	-8,724
205,15	138,372
205,36	-169,393
205,58	2205,272
205,80	-2700,894
206,01	-5625,832
206,23	320,572
206,45	394,696
206,66	424,749
206,88	-663,277
207,10	2638,448
207,31	-45740,397
207,53	655,908
207,75	-289,115
207,96	427,798
208,18	380,141
208,39	250,394
208,61	698,780
208,83	8965,339
209,04	449,971
209,26	647,317
209,48	100,337
209,69	-114,126
209,91	888,725
210,13	23,065
210,34	294,473
210,56	348,697
210,77	3072,022
210,99	329,978
211,21	-463,399
211,42	181,115
211,64	727,545
211,86	397,588
212,07	264,576
212,29	727,114
212,50	1560,656
212,72	202,758
212,94	420,076
213,15	207,295
213,37	458,220
213,58	257,518
213,80	358,425
214,02	3262,129
214,23	322,578
214,45	297,328
214,67	36,926
214,88	-108,885
215,10	1378,525
215,31	1273,197
215,53	102,037
215,75	291,108
215,96	648,944
216,18	143,027
216,39	275,816
216,61	519,260
216,83	1497,806
217,04	319,696
217,26	44,310
217,47	525,498
217,69	386,043
217,91	114,982
218,12	870,677
218,34	64,027
218,55	215,006
218,77	92,057
218,99	118,276
219,20	195,361
219,42	422,707
219,63	58,650
219,85	303,087
220,06	-111,107
220,28	168,666
220,50	66,222
220,71	107,648
220,93	464,004
221,14	371,127
221,36	51,018
221,58	128,790
221,79	96,416
222,01	207,527
222,22	258,043
222,44	88,532
222,65	213,075
222,87	48,028
223,09	86,990
223,30	64,964
223,52	385,226
223,73	84,684
223,95	65,656
224,16	54,686
224,38	118,436
224,60	75,762
224,81	136,563
225,03	80,855
225,24	99,799
225,46	-25,473
225,67	22,192
225,89	71,223
226,10	111,682
226,32	161,775
226,54	-8,343
226,75	0,725
226,97	157,989
227,18	121,946
227,40	45,625
227,61	32,110
227,83	54,822
228,04	128,971
228,26	77,155
228,47	31,801
228,69	110,572
228,91	56,807
229,12	125,468
229,34	41,334
229,55	69,680
229,77	38,326
229,98	50,025
230,20	43,979
230,41	-7,155
230,63	86,359
230,84	41,743
231,06	52,024
231,27	2,983
231,49	45,395
231,71	40,050
231,92	12,646
232,14	1,862
232,35	46,972
232,57	8,061
232,78	20,762
233,00	22,763
233,21	23,978
233,43	28,640
233,64	6,345
233,86	49,949
234,07	40,096
234,29	4,953
234,50	18,864
234,72	27,425
234,93	24,350
235,15	0,066
235,36	31,357
235,58	50,917
235,79	39,492
236,01	15,640
236,22	26,061
236,44	39,522
236,65	17,903
236,87	27,060
237,08	14,474
237,30	-0,501
237,51	29,221
237,73	27,978
237,94	12,161
238,16	20,656
238,37	22,330
238,59	6,833
238,80	11,974
239,02	12,702
239,23	25,210
239,45	13,572
239,66	22,399
239,88	26,062
240,09	21,756
240,31	12,287
240,52	7,032
240,74	20,528
240,95	14,976
241,17	14,048
241,38	15,201
241,60	3,743
241,81	23,222
242,03	5,410
242,24	16,769
242,46	17,523
242,67	4,577
242,89	20,938
243,10	16,830
243,32	21,504
243,53	19,487
243,75	10,999
243,96	14,304
244,18	14,425
244,39	21,636
244,60	2,933
244,82	10,794
245,03	18,241
245,25	16,830
245,46	27,375
245,68	5,270
245,89	31,139
246,11	25,942
246,32	13,194
246,54	15,986
246,75	9,264
246,97	21,262
247,18	25,464
247,39	10,567
247,61	16,961
247,82	21,822
248,04	7,473
248,25	9,047
248,47	17,130
248,68	14,030
248,90	12,264
249,11	11,492
249,33	18,529
249,54	18,731
249,75	15,856
249,97	6,715
250,18	25,512
250,40	17,375
250,61	10,368
250,83	7,492
251,04	11,028
251,25	17,851
251,47	16,487
251,68	10,475
251,90	15,208
252,11	13,886
252,33	16,989
252,54	9,352
252,76	6,482
252,97	5,046
253,18	13,586
253,40	12,940
253,61	9,629
253,83	11,496
254,04	12,381
254,25	7,347
254,47	5,304
254,68	13,087
254,90	10,528
255,11	9,444
255,33	13,112
255,54	7,667
255,75	8,932
255,97	12,822
256,18	9,125
256,40	12,771
256,61	13,019
256,82	8,145
257,04	17,355
257,25	7,996
257,47	12,956
257,68	14,519
257,89	15,591
258,11	10,805
258,32	15,005
258,54	8,245
258,75	18,080
258,96	15,676
259,18	13,727
259,39	10,287
259,61	15,667
259,82	11,813
260,03	9,419
260,25	12,295
260,46	14,141
260,68	10,171
260,89	9,956
261,10	12,407
261,32	10,445
261,53	3,932
261,75	15,314
261,96	10,000
262,17	24,885
262,39	14,485
262,60	7,255
262,81	9,774
263,03	18,782
263,24	12,834
263,46	10,958
263,67	12,702
263,88	12,749
264,10	8,232
264,31	12,745
264,52	11,315
264,74	13,259
264,95	10,332
265,17	15,672
265,38	10,144
265,59	20,156
265,81	14,436
266,02	6,105
266,23	4,484
266,45	19,102
266,66	16,397
266,87	12,123
267,09	8,720
267,30	17,298
267,52	18,438
267,73	12,003
267,94	9,607
268,16	14,442
268,37	8,732
268,58	12,781
268,80	3,765
269,01	12,653
269,22	13,773
269,44	12,498
269,65	11,420
269,86	8,745
270,08	12,267
270,29	8,123
270,50	9,077
270,72	12,841
270,93	9,387
271,14	10,029
271,36	7,404
271,57	12,731
271,78	12,659
272,00	11,763
272,21	15,713
272,42	11,274
272,64	15,956
272,85	5,159
273,06	8,826
273,28	12,651
273,49	9,967
273,70	11,942
273,92	13,468
274,13	11,626
274,34	3,545
274,56	11,370
274,77	11,103
274,98	16,305
275,20	15,117
275,41	13,157
275,62	6,581
275,84	12,661
276,05	20,389
276,26	9,223
276,47	8,782
276,69	16,811
276,90	16,121
277,11	11,454
277,33	8,279
277,54	16,153
277,75	12,260
277,97	8,432
278,18	6,734
278,39	17,841
278,61	9,817
278,82	16,629
279,03	12,802
279,24	9,292
279,46	11,841
279,67	16,891
279,88	10,255
280,10	17,036
280,31	10,803
280,52	8,541
280,73	6,647
280,95	12,577
281,16	12,438
281,37	12,493
281,59	11,129
281,80	15,802
282,01	9,512
282,22	6,468
282,44	11,324
282,65	19,121
282,86	11,357
283,08	8,892
283,29	10,722
283,50	7,034
283,71	11,133
283,93	11,855
284,14	9,289
284,35	10,215
284,56	11,673
284,78	6,651
284,99	12,063
285,20	17,802
285,42	10,727
285,63	9,337
285,84	8,423
286,05	9,901
286,27	10,612
286,48	12,655
286,69	13,745
286,90	10,923
287,12	9,183
287,33	10,688
287,54	8,049
287,75	15,239
287,97	10,143
288,18	7,668
288,39	10,281
288,60	11,830
288,82	10,057
289,03	9,251
289,24	12,841
289,45	14,104
289,67	11,431
289,88	10,732
290,09	14,429
290,30	9,616
290,52	9,478
290,73	6,514
290,94	10,430
291,15	8,876
291,37	10,062
291,58	8,332
291,79	12,685
292,00	11,395
292,21	10,445
292,43	12,319
292,64	4,862
292,85	11,193
293,06	12,405
293,28	8,612
293,49	9,362
293,70	14,046
293,91	8,322
294,12	10,329
294,34	10,122
294,55	11,755
294,76	13,359
294,97	12,280
295,19	12,283
295,40	8,922
295,61	12,468
295,82	12,141
296,03	10,519
296,25	12,842
296,46	8,857
296,67	9,135
296,88	11,141
297,09	7,974
297,31	9,025
297,52	13,343
297,73	8,943
297,94	8,332
298,15	12,785
298,37	9,714
298,58	9,366
298,79	10,441
299,00	7,145
299,21	8,837
299,43	6,162
299,64	15,056
299,85	9,598
300,06	7,947
300,27	6,980
300,49	13,587
300,70	13,686
300,91	9,451
301,12	8,248
301,33	13,744
301,54	7,321
301,76	11,626
301,97	9,253
302,18	11,809
302,39	13,203
302,60	9,267
302,82	10,193
303,03	15,900
303,24	9,886
303,45	13,925
303,66	10,362
303,87	7,374
304,09	11,205
304,30	7,407
304,51	11,989
304,72	6,613
304,93	12,136
305,14	8,906
305,36	8,116
305,57	6,509
305,78	13,498
305,99	11,145
306,20	10,837
306,41	7,228
306,62	6,324
306,84	8,921
307,05	9,318
307,26	9,570
307,47	16,695
307,68	9,447
307,89	10,184
308,11	12,404
308,32	11,571
308,53	7,108
308,74	7,949
308,95	8,305
309,16	13,224
309,37	9,670
309,59	8,909
309,80	8,622
310,01	10,522
310,22	10,466
310,43	11,257
310,64	10,694
310,85	12,148
311,06	7,905
311,28	10,820
311,49	10,465
311,70	14,493
311,91	10,000
312,12	7,970
312,33	8,637
312,54	10,559
312,75	13,527
312,97	8,737
313,18	12,374
313,39	7,299
313,60	9,059
313,81	10,846
314,02	10,949
314,23	13,355
314,44	9,895
314,65	8,139
314,87	7,786
315,08	8,174
315,29	8,616
315,50	11,729
315,71	15,890
315,92	13,698
316,13	7,784
316,34	9,905
316,55	12,660
316,77	6,887
316,98	9,581
317,19	7,356
317,40	11,763
317,61	13,576
317,82	9,924
318,03	6,608
318,24	11,030
318,45	13,716
318,66	11,400
318,87	8,365
319,09	11,910
319,30	12,783
319,51	11,643
319,72	10,707
319,93	10,538
320,14	11,728
320,35	11,857
320,56	6,525
320,77	10,954
320,98	15,002
321,19	13,961
321,40	10,670
321,62	8,979
321,83	6,445
322,04	10,034
322,25	12,655
322,46	14,720
322,67	12,994
322,88	11,994
323,09	9,226
323,30	13,349
323,51	15,609
323,72	10,945
323,93	8,082
324,14	8,675
324,35	6,646
324,56	8,386
324,77	8,451
324,99	10,127
325,20	8,147
325,41	11,864
325,62	8,537
325,83	4,667
326,04	8,296
326,25	10,608
326,46	6,923
326,67	11,034
326,88	10,299
327,09	8,399
327,30	9,330
327,51	12,114
327,72	10,396
327,93	10,063
328,14	8,594
328,35	12,393
328,56	10,945
328,77	12,373
328,98	11,745
329,19	9,258
329,40	11,451
329,61	9,405
329,82	7,245
330,04	11,687
330,25	10,219
330,46	9,260
330,67	8,066
330,88	10,575
331,09	8,672
331,30	9,913
331,51	8,646
331,72	9,829
331,93	11,583
332,14	9,003
332,35	11,219
332,56	9,146
332,77	13,616
332,98	8,383
333,19	11,112
333,40	11,670
333,61	8,845
333,82	11,901
334,03	11,235
334,24	17,382
334,45	10,343
334,66	11,065
334,87	8,723
335,08	8,070
335,29	7,478
335,50	10,027
335,71	5,854
335,92	13,462
336,13	8,571
336,34	10,474
336,55	10,461
336,76	10,826
336,97	9,899
337,18	11,555
337,39	9,863
337,60	11,855
337,81	10,110
338,02	11,547
338,23	11,776
338,44	9,529
338,65	6,960
338,86	11,375
339,07	12,282
339,28	9,048
339,49	11,393
339,70	5,854
339,91	9,164
340,11	14,407
340,32	10,905
340,53	9,418
340,74	5,940
340,95	7,602
341,16	9,190
341,37	12,839
341,58	11,647
341,79	9,249
342,00	8,680
342,21	3,592
342,42	10,122
342,63	13,396
342,84	11,531
343,05	8,809
343,26	15,241
343,47	12,263
343,68	8,172
343,89	8,582
344,10	7,553
344,31	9,019
344,52	10,770
344,73	6,774
344,94	6,456
345,14	12,892
345,35	9,465
345,56	8,243
345,77	6,600
345,98	7,981
346,19	13,070
346,40	13,961
346,61	6,516
346,82	11,083
347,03	11,749
347,24	8,122
347,45	8,053
347,66	13,334
347,87	7,954
348,08	13,454
348,28	9,409
348,49	8,986
348,70	12,025
348,91	11,690
349,12	8,277
349,33	5,546
349,54	9,737
349,75	13,405
349,96	9,240
350,17	13,744
350,38	5,956
350,59	9,046
350,80	10,903
351,00	8,259
351,21	17,855
351,42	8,652
351,63	10,791
351,84	13,026
352,05	13,725
352,26	9,716
352,47	12,930
352,68	14,095
352,89	8,530
353,09	8,462
353,30	8,155
353,51	8,169
353,72	15,767
353,93	15,877
354,14	8,263
354,35	11,482
354,56	14,054
354,77	9,211
354,98	8,061
355,18	11,309
355,39	17,241
355,60	7,625
355,81	12,280
356,02	10,477
356,23	7,132
356,44	11,729
356,65	9,373
356,85	15,293
357,06	13,400
357,27	9,704
357,48	6,909
357,69	14,924
357,90	13,753
358,11	4,123
358,32	7,105
358,52	14,070
358,73	9,637
358,94	10,349
359,15	10,684
359,36	13,655
359,57	9,324
359,78	14,401
359,98	12,561
360,19	8,645
360,40	9,434
360,61	13,316
360,82	10,719
361,03	18,270
361,24	22,524
361,44	7,158
361,65	10,558
361,86	8,768
362,07	12,084
362,28	14,860
362,49	11,624
362,70	12,878
362,90	11,710
363,11	9,065
363,32	6,328
363,53	11,451
363,74	17,548
363,95	14,479
364,15	8,739
364,36	14,074
364,57	9,096
364,78	9,063
364,99	9,792
365,20	12,160
365,40	12,646
365,61	11,807
365,82	12,645
366,03	15,165
366,24	9,655
366,45	7,272
366,65	5,895
366,86	13,284
367,07	11,069
367,28	6,346
367,49	7,699
367,69	12,293
367,90	9,166
368,11	12,093
368,32	10,059
368,53	14,943
368,73	9,617
368,94	10,521
369,15	13,261
369,36	14,020
369,57	11,480
369,78	10,992
369,98	10,065
370,19	12,332
370,40	8,524
370,61	10,965
370,82	12,240
371,02	15,523
371,23	10,671
371,44	11,320
371,65	9,545
371,85	13,035
372,06	7,331
372,27	13,480
372,48	9,696
372,69	13,585
372,89	10,499
373,10	10,191
373,31	11,799
373,52	9,738
373,73	13,394
373,93	12,185
374,14	10,865
374,35	10,803
374,56	12,013
374,76	11,311
374,97	12,315
375,18	15,010
375,39	10,597
375,60	12,474
375,80	9,613
376,01	7,397
376,22	13,860
376,43	8,989
376,63	11,090
376,84	12,227
377,05	11,303
377,26	8,227
377,46	11,094
377,67	11,789
377,88	6,114
378,09	10,261
378,29	10,178
378,50	9,515
378,71	12,396
378,92	7,908
379,12	8,781
379,33	10,458
379,54	10,947
379,75	13,885
379,95	12,507
380,16	12,873
380,37	12,092
380,58	9,687
380,78	12,939
380,99	9,047
381,20	7,143
381,41	14,412
381,61	9,442
381,82	12,071
382,03	11,865
382,24	13,529
382,44	8,791
382,65	13,420
382,86	15,188
383,06	14,115
383,27	12,318
383,48	12,160
383,69	11,672
383,89	7,580
384,10	7,094
384,31	12,321
384,51	13,949
384,72	13,618
384,93	10,127
385,14	7,088
385,34	9,918
385,55	9,825
385,76	6,832
385,96	16,748
386,17	10,429
386,38	9,847
386,59	17,344
386,79	11,940
387,00	17,281
387,21	14,803
387,41	11,355
387,62	11,087
387,83	13,193
388,03	9,676
388,24	13,538
388,45	10,236
388,66	13,489
388,86	10,767
389,07	10,917
389,28	18,649
389,48	12,885
389,69	11,528
389,90	6,075
390,10	9,621
390,31	16,185
390,52	12,027
390,72	10,165
390,93	12,470
391,14	12,447
391,34	12,484
391,55	14,334
391,76	15,572
391,96	16,976
392,17	11,119
392,38	11,228
392,58	11,883
392,79	12,189
393,00	8,042
393,20	14,455
393,41	16,207
393,62	14,202
393,82	11,387
394,03	12,815
394,24	12,212
394,44	16,366
394,65	17,441
394,86	10,328
395,06	15,450
395,27	13,580
395,48	13,104
395,68	9,391
395,89	13,300
396,10	20,119
396,30	11,756
396,51	10,832
396,72	14,201
396,92	11,235
397,13	17,645
397,34	11,738
397,54	15,184
397,75	13,748
397,95	12,051
398,16	13,439
398,37	14,712
398,57	6,515
398,78	10,718
398,99	14,625
399,19	15,495
399,40	20,605
399,60	14,479
399,81	18,530
400,02	20,496
400,22	16,930
400,43	18,870
400,64	12,181
400,84	10,028
401,05	18,903
401,25	18,687
401,46	14,901
401,67	18,825
401,87	15,671
402,08	12,602
402,29	17,196
402,49	22,625
402,70	19,503
402,90	14,384
403,11	17,356
403,32	15,462
403,52	15,277
403,73	16,546
403,93	20,552
404,14	24,491
404,35	16,301
404,55	15,299
404,76	16,928
404,96	19,371
405,17	23,594
405,38	25,632
405,58	17,956
405,79	22,078
405,99	25,731
406,20	20,990
406,40	19,613
406,61	21,672
406,82	20,631
407,02	21,675
407,23	18,323
407,43	19,155
407,64	17,237
407,85	21,120
408,05	15,227
408,26	30,031
408,46	27,500
408,67	18,848
408,87	22,707
409,08	17,861
409,29	30,009
409,49	25,361
409,70	21,318
409,90	22,638
410,11	23,469
410,31	25,557
410,52	22,892
410,72	22,155
410,93	25,384
411,14	22,516
411,34	19,606
411,55	21,836
411,75	27,080
411,96	25,840
412,16	27,675
412,37	23,098
412,57	28,447
412,78	29,832
412,99	23,104
413,19	26,663
413,40	24,204
413,60	25,847
413,81	24,331
414,01	24,119
414,22	25,349
414,42	25,663
414,63	24,496
414,83	24,681
415,04	32,412
415,24	28,325
415,45	26,563
415,65	28,039
415,86	34,833
416,07	26,736
416,27	28,842
416,48	31,015
416,68	37,839
416,89	26,794
417,09	29,917
417,30	34,039
417,50	21,285
417,71	31,639
417,91	32,109
418,12	30,576
418,32	32,814
418,53	28,283
418,73	30,020
418,94	29,327
419,14	32,797
419,35	26,406
419,55	31,697
419,76	33,849
419,96	31,427
420,17	29,346
420,37	29,852
420,58	31,794
420,78	32,345
420,99	29,992
421,19	34,186
421,40	37,872
421,60	37,003
421,81	26,344
422,01	32,106
422,22	33,223
422,42	35,991
422,63	33,541
422,83	33,998
423,04	41,120
423,24	44,664
423,45	29,931
423,65	34,445
423,86	39,568
424,06	34,151
424,27	31,566
424,47	30,909
424,67	30,583
424,88	32,882
425,08	33,007
425,29	37,138
425,49	28,177
425,70	31,974
425,90	34,354
426,11	33,925
426,31	35,220
426,52	36,218
426,72	33,652
426,93	31,001
427,13	38,735
427,33	33,866
427,54	36,425
427,74	35,702
427,95	40,847
428,15	34,444
428,36	34,772
428,56	30,327
428,77	35,293
428,97	37,162
429,18	33,170
429,38	32,413
429,58	35,144
429,79	36,846
429,99	29,994
430,20	34,931
430,40	39,633
430,61	34,891
430,81	35,648
431,01	36,970
431,22	38,653
431,42	36,382
431,63	30,132
431,83	36,596
432,04	39,006
432,24	38,939
432,44	35,654
432,65	36,050
432,85	36,590
433,06	36,024
433,26	32,373
433,47	34,773
433,67	35,463
433,87	36,190
434,08	34,778
434,28	34,369
434,49	35,787
434,69	44,425
434,89	40,053
435,10	33,147
435,30	41,254
435,51	35,629
435,71	33,606
435,91	35,585
436,12	34,697
436,32	38,001
436,53	37,030
436,73	36,665
436,93	38,382
437,14	36,373
437,34	37,408
437,55	33,792
437,75	37,777
437,95	39,928
438,16	34,506
438,36	36,376
438,57	36,576
438,77	38,136
438,97	37,117
439,18	38,047
439,38	38,622
439,58	35,535
439,79	34,877
439,99	30,620
440,20	43,898
440,40	42,877
440,60	40,712
440,81	36,930
441,01	38,107
441,21	37,827
441,42	43,393
441,62	39,030
441,83	38,246
442,03	38,719
442,23	40,249
442,44	39,089
442,64	38,739
442,84	36,316
443,05	39,902
443,25	34,326
443,45	40,549
443,66	37,124
443,86	36,438
444,06	38,548
444,27	32,575
444,47	43,682
444,67	40,348
444,88	39,632
445,08	39,233
445,28	34,650
445,49	39,369
445,69	38,433
445,90	40,027
446,10	42,769
446,30	38,797
446,51	37,218
446,71	40,910
446,91	40,521
447,12	45,361
447,32	35,975
447,52	40,607
447,72	43,317
447,93	37,279
448,13	35,174
448,33	43,901
448,54	43,164
448,74	36,627
448,94	36,945
449,15	40,840
449,35	35,920
449,55	42,903
449,76	39,333
449,96	37,918
450,16	40,545
450,37	35,189
450,57	38,949
450,77	37,981
450,98	35,160
451,18	40,007
451,38	41,254
451,58	42,835
451,79	34,983
451,99	41,248
452,19	42,186
452,40	47,680
452,60	35,906
452,80	42,421
453,00	42,730
453,21	34,893
453,41	41,585
453,61	38,499
453,82	43,095
454,02	36,967
454,22	54,275
454,42	42,329
454,63	37,202
454,83	37,558
455,03	42,893
455,24	37,268
455,44	39,809
455,64	39,689
455,84	38,323
456,05	34,052
456,25	34,271
456,45	38,584
456,65	40,194
456,86	39,754
457,06	38,415
457,26	43,236
457,47	46,793
457,67	37,605
457,87	35,579
458,07	39,010
458,28	40,456
458,48	45,625
458,68	34,451
458,88	44,785
459,09	36,114
459,29	44,007
459,49	33,881
459,69	41,546
459,90	39,272
460,10	37,252
460,30	40,967
460,50	35,358
460,71	41,408
460,91	33,497
461,11	42,654
461,31	41,451
461,52	43,732
461,72	39,996
461,92	37,199
462,12	43,984
462,32	35,840
462,53	37,723
462,73	39,773
462,93	38,211
463,13	41,639
463,34	38,271
463,54	40,487
463,74	37,970
463,94	37,395
464,14	41,371
464,35	34,668
464,55	44,328
464,75	46,963
464,95	37,929
465,16	34,410
465,36	44,275
465,56	36,672
465,76	36,832
465,96	41,420
466,17	38,395
466,37	36,779
466,57	42,877
466,77	42,354
466,97	36,625
467,18	42,689
467,38	40,368
467,58	44,708
467,78	43,507
467,98	39,546
468,19	39,339
468,39	39,432
468,59	37,978
468,79	38,881
468,99	39,931
469,19	37,608
469,40	37,059
469,60	38,681
469,80	36,221
470,00	38,920
470,20	42,631
470,41	35,262
470,61	41,741
470,81	39,722
471,01	40,069
471,21	40,308
471,41	43,508
471,62	41,835
471,82	36,341
472,02	38,021
472,22	37,180
472,42	38,608
472,62	41,926
472,83	32,667
473,03	40,561
473,23	39,714
473,43	43,855
473,63	40,723
473,83	35,938
474,03	40,793
474,24	40,020
474,44	41,223
474,64	38,359
474,84	34,490
475,04	37,362
475,24	42,262
475,45	39,906
475,65	38,557
475,85	43,282
476,05	33,866
476,25	40,548
476,45	39,461
476,65	40,097
476,85	38,650
477,06	38,099
477,26	34,759
477,46	37,235
477,66	39,142
477,86	37,618
478,06	40,066
478,26	46,110
478,46	37,008
478,67	39,672
478,87	36,394
479,07	40,250
479,27	40,867
479,47	35,935
479,67	33,101
479,87	37,667
480,07	44,221
480,28	38,043
480,48	35,372
480,68	39,488
480,88	45,775
481,08	42,845
481,28	39,909
481,48	39,050
481,68	38,849
481,88	36,189
482,08	38,184
482,29	37,772
482,49	34,914
482,69	37,877
482,89	38,052
483,09	43,791
483,29	37,218
483,49	32,147
483,69	41,062
483,89	38,582
484,09	34,467
484,29	34,029
484,50	39,566
484,70	39,391
484,90	36,539
485,10	39,949
485,30	38,668
485,50	44,248
485,70	41,276
485,90	36,152
486,10	34,665
486,30	35,771
486,50	38,416
486,70	33,885
486,90	38,105
487,10	39,078
487,30	37,607
487,51	38,770
487,71	37,205
487,91	37,068
488,11	41,604
488,31	36,322
488,51	37,274
488,71	37,507
488,91	36,170
489,11	37,033
489,31	37,002
489,51	39,804
489,71	36,351
489,91	36,240
490,11	38,595
490,31	40,305
490,51	40,377
490,71	40,584
490,91	36,831
491,11	37,424
491,31	40,689
491,51	37,721
491,72	35,724
491,92	38,639
492,12	40,650
492,32	39,312
492,52	40,032
492,72	36,028
492,92	35,693
493,12	38,865
493,32	35,734
493,52	35,669
493,72	36,860
493,92	36,650
494,12	39,402
494,32	38,863
494,52	36,738
494,72	36,383
494,92	35,522
495,12	39,696
495,32	43,131
495,52	39,725
495,72	37,776
495,92	40,110
496,12	38,876
496,32	39,356
496,52	38,647
496,72	39,789
496,92	39,685
497,12	39,768
497,32	39,353
497,52	38,709
497,72	38,074
497,92	38,570
498,12	36,257
498,32	38,265
498,52	38,791
498,72	36,999
498,92	38,280
499,12	39,122
499,32	35,465
499,52	41,157
499,72	39,314
499,92	40,773
500,12	40,068
500,32	38,870
500,52	39,192
500,72	41,270
500,91	42,543
501,11	39,638
501,31	35,159
501,51	40,552
501,71	39,644
501,91	37,673
502,11	35,245
502,31	39,301
502,51	40,132
502,71	40,157
502,91	36,126
503,11	40,463
503,31	40,787
503,51	35,317
503,71	38,562
503,91	40,572
504,11	37,248
504,31	39,571
504,51	35,361
504,71	44,551
504,91	36,275
505,10	38,216
505,30	37,343
505,50	37,971
505,70	36,782
505,90	40,251
506,10	35,527
506,30	39,834
506,50	38,245
506,70	38,188
506,90	37,604
507,10	35,994
507,30	35,535
507,50	35,724
507,70	39,823
507,89	39,759
508,09	39,299
508,29	36,715
508,49	34,312
508,69	37,583
508,89	37,393
509,09	37,033
509,29	37,444
509,49	38,702
509,69	41,453
509,89	40,408
510,09	38,630
510,28	37,864
510,48	38,277
510,68	38,496
510,88	37,296
511,08	39,083
511,28	37,641
511,48	37,515
511,68	32,697
511,88	43,430
512,07	36,080
512,27	38,012
512,47	36,305
512,67	37,136
512,87	34,621
513,07	37,583
513,27	35,124
513,47	36,926
513,67	35,421
513,86	38,227
514,06	38,010
514,26	37,631
514,46	39,839
514,66	35,998
514,86	38,517
515,06	41,521
515,26	39,600
515,45	37,275
515,65	35,646
515,85	36,944
516,05	37,427
516,25	37,160
516,45	40,175
516,65	35,407
516,84	38,072
517,04	40,516
517,24	36,798
517,44	39,362
517,64	37,975
517,84	41,836
518,04	38,273
518,23	39,685
518,43	41,384
518,63	37,609
518,83	33,821
519,03	35,838
519,23	37,630
519,42	37,593
519,62	36,252
519,82	34,024
520,02	35,909
520,22	39,021
520,42	36,656
520,61	40,955
520,81	36,538
521,01	40,115
521,21	36,717
521,41	35,267
521,61	41,359
521,80	35,515
522,00	35,003
522,20	42,198
522,40	36,862
522,60	37,561
522,79	36,842
522,99	40,368
523,19	33,714
523,39	36,703
523,59	37,705
523,78	38,080
523,98	35,369
524,18	37,932
524,38	32,200
524,58	36,137
524,77	37,365
524,97	37,322
525,17	37,380
525,37	34,765
525,57	41,851
525,76	37,717
525,96	39,443
526,16	35,770
526,36	36,186
526,56	37,441
526,75	37,332
526,95	40,294
527,15	36,547
527,35	37,684
527,55	35,015
527,74	34,744
527,94	35,854
528,14	33,981
528,34	36,416
528,53	34,583
528,73	39,304
528,93	38,962
529,13	36,074
529,32	36,261
529,52	36,576
529,72	34,658
529,92	35,821
530,12	34,959
530,31	36,918
530,51	39,693
530,71	35,300
530,91	42,266
531,10	31,858
531,30	37,372
531,50	34,129
531,70	35,872
531,89	38,525
532,09	34,987
532,29	36,688
532,49	36,774
532,68	37,490
532,88	32,881
533,08	34,831
533,28	36,047
533,47	38,328
533,67	38,402
533,87	36,877
534,06	43,688
534,26	35,514
534,46	35,914
534,66	35,840
534,85	36,842
535,05	32,254
535,25	33,322
535,45	32,803
535,64	39,561
535,84	38,577
536,04	32,148
536,23	35,402
536,43	38,171
536,63	36,823
536,83	37,796
537,02	36,122
537,22	32,208
537,42	36,752
537,61	35,829
537,81	34,324
538,01	37,078
538,20	36,857
538,40	33,174
538,60	34,769
538,80	34,787
538,99	35,545
539,19	34,166
539,39	33,349
539,58	37,008
539,78	33,913
539,98	33,793
540,17	30,800
540,37	38,547
540,57	31,430
540,76	33,971
540,96	29,481
541,16	35,368
541,36	34,484
541,55	30,891
541,75	31,187
541,95	35,530
542,14	31,271
542,34	29,727
542,54	28,937
542,73	35,938
542,93	31,196
543,13	31,108
543,32	30,760
543,52	33,848
543,72	29,222
543,91	34,692
544,11	29,993
544,31	28,354
544,50	30,627
544,70	34,243
544,89	32,912
545,09	33,936
545,29	31,965
545,48	32,913
545,68	29,680
545,88	30,965
546,07	29,777
546,27	32,134
546,47	34,411
546,66	33,662
546,86	31,154
547,06	33,481
547,25	31,291
547,45	33,197
547,64	32,924
547,84	36,312
548,04	35,373
548,23	40,319
548,43	34,364
548,63	35,371
548,82	35,549
549,02	35,035
549,21	32,001
549,41	33,065
549,61	34,689
549,80	32,150
550,00	36,797
550,20	31,499
550,39	34,450
550,59	35,571
550,78	36,346
550,98	33,020
551,18	38,197
551,37	35,370
551,57	34,699
551,76	34,025
551,96	33,348
552,16	34,600
552,35	36,246
552,55	32,170
552,74	35,460
552,94	36,837
553,14	33,140
553,33	33,987
553,53	35,780
553,72	34,011
553,92	38,371
554,12	32,456
554,31	37,002
554,51	34,699
554,70	31,718
554,90	33,435
555,09	37,925
555,29	34,826
555,49	34,600
555,68	36,797
555,88	31,877
556,07	32,481
556,27	39,025
556,46	34,064
556,66	33,168
556,86	39,358
557,05	38,155
557,25	32,944
557,44	33,484
557,64	32,087
557,83	35,692
558,03	34,779
558,22	31,986
558,42	34,959
558,62	34,982
558,81	37,495
559,01	36,692
559,20	35,190
559,40	33,012
559,59	34,641
559,79	33,825
559,98	36,287
560,18	35,866
560,37	34,281
560,57	34,732
560,76	33,371
560,96	31,145
561,16	34,417
561,35	32,515
561,55	35,713
561,74	34,671
561,94	35,170
562,13	33,903
562,33	36,617
562,52	34,230
562,72	33,580
562,91	35,050
563,11	33,398
563,30	35,402
563,50	34,202
563,69	33,245
563,89	31,477
564,08	35,178
564,28	33,685
564,47	35,208
564,67	32,753
564,86	34,873
565,06	32,571
565,25	33,218
565,45	33,256
565,64	37,602
565,84	34,084
566,03	31,496
566,23	35,208
566,42	34,385
566,62	34,855
566,81	32,957
567,01	31,075
567,20	34,611
567,40	33,733
567,59	33,108
567,79	38,789
567,98	37,384
568,18	34,012
568,37	36,058
568,57	33,020
568,76	34,234
568,96	34,936
569,15	33,040
569,35	33,036
569,54	38,893
569,73	35,618
569,93	33,193
570,12	34,407
570,32	36,597
570,51	33,886
570,71	36,084
570,90	36,361
571,10	34,446
571,29	33,767
571,49	32,136
571,68	36,351
571,87	35,884
572,07	35,519
572,26	31,611
572,46	35,001
572,65	35,353
572,85	33,596
573,04	36,234
573,24	33,385
573,43	37,834
573,62	35,619
573,82	36,339
574,01	36,732
574,21	33,292
574,40	34,309
574,60	32,686
574,79	37,404
574,98	34,473
575,18	35,406
575,37	31,296
575,57	34,416
575,76	35,262
575,96	35,093
576,15	35,163
576,34	33,563
576,54	36,379
576,73	36,485
576,93	35,666
577,12	35,636
577,31	36,425
577,51	34,789
577,70	33,744
577,90	34,920
578,09	35,560
578,28	33,783
578,48	34,099
578,67	35,836
578,87	36,129
579,06	33,869
579,25	36,927
579,45	37,040
579,64	33,863
579,84	33,065
580,03	35,985
580,22	36,671
580,42	35,960
580,61	36,218
580,81	34,207
581,00	35,117
581,19	37,284
581,39	34,058
581,58	33,813
581,77	34,347
581,97	37,170
582,16	35,437
582,35	33,267
582,55	34,232
582,74	37,437
582,94	36,642
583,13	36,385
583,32	35,588
583,52	37,576
583,71	35,055
583,90	34,502
584,10	37,099
584,29	37,726
584,48	33,119
584,68	33,788
584,87	37,315
585,06	36,116
585,26	34,243
585,45	34,852
585,65	37,517
585,84	35,259
586,03	34,983
586,23	35,071
586,42	35,433
586,61	39,973
586,81	35,780
587,00	34,807
587,19	35,432
587,39	35,992
587,58	34,493
587,77	33,754
587,97	32,961
588,16	35,763
588,35	33,412
588,54	35,499
588,74	34,429
588,93	36,991
589,12	35,194
589,32	33,843
589,51	33,861
589,70	33,713
589,90	32,976
590,09	33,071
590,28	37,962
590,48	31,832
590,67	36,693
590,86	34,475
591,06	34,766
591,25	35,727
591,44	35,565
591,63	36,145
591,83	34,835
592,02	35,641
592,21	34,264
592,41	36,982
592,60	37,519
592,79	34,968
592,98	36,328
593,18	34,650
593,37	34,618
593,56	35,979
593,76	36,733
593,95	35,004
594,14	34,649
594,33	37,609
594,53	36,148
594,72	34,039
594,91	37,305
595,10	35,303
595,30	35,972
595,49	36,239
595,68	37,628
595,88	37,442
596,07	37,167
596,26	35,776
596,45	34,646
596,65	34,252
596,84	35,208
597,03	37,519
597,22	35,593
597,42	37,860
597,61	34,694
597,80	36,269
597,99	35,252
598,19	36,190
598,38	36,372
598,57	35,047
598,76	37,247
598,95	37,897
599,15	37,130
599,34	35,517
599,53	34,972
599,72	34,685
599,92	38,004
600,11	37,403
600,30	36,260
600,49	38,104
600,69	35,589
600,88	36,443
601,07	35,219
601,26	35,142
601,45	34,502
601,65	34,912
601,84	35,964
602,03	34,710
602,22	35,463
602,42	37,561
602,61	35,915
602,80	36,245
602,99	35,817
603,18	34,595
603,38	37,750
603,57	34,683
603,76	35,373
603,95	35,065
604,14	36,618
604,34	35,209
604,53	34,692
604,72	35,331
604,91	36,325
605,10	37,031
605,29	36,929
605,49	34,870
605,68	37,413
605,87	39,663
606,06	35,271
606,25	35,110
606,45	37,219
606,64	35,784
606,83	37,814
607,02	35,444
607,21	35,974
607,40	37,312
607,60	34,889
607,79	33,792
607,98	33,751
608,17	35,123
608,36	34,844
608,55	36,496
608,75	37,612
608,94	36,904
609,13	34,054
609,32	34,021
609,51	35,955
609,70	35,824
609,89	34,126
610,09	33,421
610,28	34,348
610,47	33,381
610,66	34,116
610,85	32,154
611,04	36,656
611,23	31,929
611,43	33,066
611,62	34,112
611,81	32,361
612,00	32,997
612,19	32,556
612,38	34,776
612,57	34,853
612,77	33,949
612,96	33,577
613,15	34,715
613,34	34,390
613,53	34,621
613,72	35,044
613,91	32,390
614,10	34,853
614,29	36,483
614,49	33,908
614,68	33,146
614,87	34,749
615,06	38,266
615,25	34,642
615,44	36,427
615,63	35,775
615,82	34,446
616,01	35,934
616,21	33,310
616,40	35,907
616,59	36,034
616,78	34,689
616,97	35,066
617,16	33,468
617,35	35,961
617,54	33,599
617,73	36,091
617,92	35,282
618,11	35,701
618,31	35,802
618,50	37,044
618,69	34,292
618,88	34,128
619,07	31,121
619,26	33,513
619,45	34,482
619,64	33,640
619,83	33,956
620,02	34,076
620,21	35,973
620,40	34,954
620,59	35,533
620,78	33,646
620,97	33,932
621,17	36,285
621,36	34,187
621,55	33,153
621,74	35,982
621,93	35,591
622,12	34,940
622,31	33,274
622,50	34,379
622,69	36,376
622,88	35,095
623,07	36,334
623,26	35,023
623,45	37,820
623,64	35,181
623,83	33,299
624,02	35,740
624,21	33,928
624,40	33,863
624,59	32,352
624,78	34,826
624,97	36,929
625,16	32,953
625,35	33,277
625,54	31,808
625,73	33,136
625,92	35,703
626,12	35,249
626,31	35,453
626,50	35,744
626,69	33,842
626,88	35,321
627,07	34,932
627,26	34,116
627,45	36,250
627,64	32,486
627,83	35,274
628,02	32,724
628,21	33,804
628,40	35,455
628,59	35,544
628,78	32,511
628,97	34,391
629,16	32,829
629,35	34,150
629,54	35,164
629,73	34,845
629,92	32,449
630,10	35,989
630,29	34,599
630,48	32,515
630,67	32,160
630,86	35,884
631,05	33,190
631,24	34,995
631,43	33,074
631,62	33,090
631,81	33,003
632,00	33,122
632,19	31,192
632,38	34,665
632,57	34,496
632,76	31,473
632,95	34,896
633,14	34,969
633,33	35,064
633,52	34,682
633,71	34,641
633,90	32,149
634,09	33,252
634,28	34,794
634,47	32,890
634,66	34,269
634,85	33,207
635,04	37,138
635,22	32,880
635,41	32,690
635,60	36,333
635,79	35,420
635,98	33,417
636,17	33,288
636,36	31,575
636,55	32,112
636,74	34,868
636,93	34,659
637,12	33,795
637,31	32,515
637,50	33,650
637,69	33,225
637,87	35,309
638,06	32,591
638,25	31,363
638,44	34,010
638,63	32,565
638,82	32,671
639,01	33,614
639,20	34,321
639,39	35,665
639,58	33,271
639,77	33,531
639,95	31,437
640,14	36,605
640,33	33,555
640,52	33,819
640,71	36,520
640,90	33,453
641,09	36,151
641,28	32,883
641,47	34,838
641,66	33,889
641,84	35,545
642,03	31,089
642,22	33,764
642,41	37,108
642,60	32,863
642,79	35,343
642,98	33,541
643,17	34,051
643,35	32,027
643,54	32,804
643,73	32,894
643,92	34,092
644,11	33,016
644,30	32,848
644,49	33,609
644,67	33,543
644,86	33,009
645,05	33,223
645,24	32,401
645,43	32,693
645,62	32,946
645,81	31,602
645,99	33,461
646,18	35,833
646,37	33,062
646,56	33,229
646,75	33,506
646,94	35,236
647,13	31,433
647,31	33,497
647,50	32,030
647,69	35,512
647,88	32,793
648,07	35,026
648,26	38,396
648,44	32,532
648,63	35,265
648,82	32,457
649,01	35,113
649,20	32,127
649,38	33,383
649,57	33,181
649,76	33,286
649,95	34,342
650,14	32,586
650,33	33,877
650,51	33,195
650,70	33,265
650,89	33,684
651,08	33,577
651,27	35,185
651,45	32,538
651,64	32,681
651,83	32,135
652,02	31,693
652,21	32,591
652,39	34,817
652,58	34,995
652,77	36,710
652,96	34,484
653,15	35,713
653,33	34,144
653,52	34,563
653,71	36,589
653,90	34,675
654,09	34,062
654,27	33,569
654,46	36,424
654,65	35,465
654,84	35,300
655,02	36,498
655,21	34,807
655,40	36,763
655,59	35,170
655,77	36,763
655,96	35,473
656,15	36,893
656,34	35,976
656,53	35,043
656,71	35,589
656,90	36,349
657,09	34,878
657,28	36,515
657,46	34,789
657,65	33,803
657,84	34,016
658,03	33,806
658,21	34,574
658,40	32,957
658,59	32,795
658,78	33,650
658,96	31,858
659,15	34,421
659,34	32,334
659,52	33,137
659,71	32,965
659,90	32,680
660,09	32,782
660,27	33,821
660,46	36,062
660,65	34,116
660,84	30,864
661,02	33,466
661,21	35,132
661,40	34,440
661,58	32,367
661,77	33,279
661,96	31,537
662,15	33,560
662,33	32,945
662,52	33,249
662,71	32,564
662,89	31,471
663,08	33,414
663,27	33,637
663,45	32,390
663,64	33,190
663,83	31,734
664,02	30,734
664,20	32,929
664,39	32,974
664,58	33,469
664,76	32,658
664,95	33,177
665,14	33,186
665,32	31,227
665,51	33,809
665,70	33,463
665,88	34,040
666,07	32,456
666,26	35,783
666,44	34,450
666,63	30,714
666,82	30,615
667,00	31,820
667,19	31,928
667,38	33,655
667,56	32,386
667,75	31,771
667,94	31,833
668,12	30,566
668,31	33,373
668,50	32,009
668,68	33,754
668,87	32,216
669,06	33,281
669,24	34,004
669,43	31,729
669,62	31,627
669,80	31,124
669,99	31,286
670,18	32,146
670,36	29,833
670,55	33,746
670,74	31,387
670,92	30,624
671,11	34,132
671,29	30,570
671,48	30,176
671,67	32,762
671,85	30,992
672,04	31,805
672,23	31,673
672,41	31,684
672,60	32,457
672,78	32,002
672,97	32,056
673,16	33,699
673,34	32,914
673,53	31,857
673,71	32,883
673,90	32,195
674,09	31,368
674,27	32,554
674,46	31,454
674,64	31,871
674,83	32,876
675,02	31,941
675,20	31,383
675,39	31,745
675,57	31,749
675,76	31,642
675,95	34,103
676,13	31,490
676,32	31,451
676,50	32,670
676,69	30,711
676,88	31,804
677,06	29,213
677,25	32,710
677,43	34,626
677,62	32,857
677,80	33,468
677,99	31,667
678,18	32,765
678,36	32,972
678,55	29,989
678,73	29,789
678,92	32,173
679,10	31,557
679,29	31,330
679,48	29,437
679,66	32,096
679,85	31,977
680,03	30,741
680,22	31,134
680,40	30,949
680,59	30,764
680,77	31,442
680,96	31,248
681,15	31,986
681,33	32,852
681,52	31,173
681,70	30,949
681,89	33,346
682,07	30,197
682,26	31,779
682,44	32,072
682,63	32,623
682,81	32,611
683,00	31,553
683,18	30,655
683,37	32,734
683,55	31,752
683,74	33,779
683,92	38,328
684,11	32,885
684,29	31,754
684,48	30,950
684,67	31,814
684,85	31,171
685,04	32,907
685,22	31,773
685,41	32,632
685,59	31,874
685,78	29,973
685,96	31,392
686,15	30,758
686,33	31,531
686,52	31,901
686,70	30,596
686,89	30,582
687,07	32,272
687,26	32,209
687,44	31,361
687,62	30,973
687,81	33,188
687,99	32,950
688,18	32,714
688,36	32,690
688,55	34,223
688,73	32,277
688,92	30,897
689,10	32,360
689,29	33,163
689,47	33,072
689,66	31,174
689,84	32,456
690,03	35,846
690,21	31,272
690,40	29,123
690,58	30,638
690,76	31,130
690,95	32,348
691,13	29,538
691,32	32,186
691,50	31,295
691,69	33,491
691,87	32,241
692,06	31,427
692,24	32,137
692,43	33,197
692,61	32,130
692,79	32,437
692,98	30,787
693,16	33,006
693,35	30,171
693,53	32,673
693,72	32,999
693,90	34,880
694,08	32,261
694,27	31,700
694,45	33,515
694,64	35,583
694,82	31,183
695,01	32,386
695,19	31,158
695,37	33,208
695,56	32,882
695,74	33,009
695,93	34,273
696,11	31,181
696,29	33,378
696,48	33,566
696,66	33,228
696,85	30,033
697,03	30,979
697,21	33,707
697,40	34,130
697,58	32,435
697,77	33,252
697,95	31,486
698,13	31,451
698,32	31,750
698,50	30,773
698,69	31,060
698,87	32,564
699,05	33,442
699,24	31,984
699,42	32,067
699,60	29,308
699,79	32,322
699,97	30,803
700,16	30,682
700,34	36,150
700,52	31,995
700,71	32,256
700,89	30,080
701,07	30,831
701,26	32,354
701,44	31,097
701,63	31,693
701,81	32,421
701,99	32,726
702,18	30,821
702,36	31,691
702,54	34,107
702,73	32,251
702,91	30,112
703,09	30,029
703,28	30,370
703,46	33,052
703,64	31,716
703,83	33,435
704,01	32,607
704,19	32,479
704,38	29,154
704,56	30,890
704,74	33,226
704,93	30,301
705,11	31,136
705,29	31,767
705,48	35,605
705,66	32,629
705,84	31,028
706,03	29,831
706,21	31,451
706,39	33,154
706,58	29,920
706,76	31,761
706,94	31,856
707,12	31,667
707,31	30,824
707,49	31,243
707,67	31,193
707,86	34,941
708,04	33,293
708,22	31,384
708,41	33,811
708,59	31,247
708,77	33,145
708,95	32,373
709,14	34,825
709,32	33,351
709,50	29,941
709,69	31,948
709,87	31,330
710,05	30,452
710,23	29,696
710,42	30,942
710,60	31,932
710,78	35,086
710,97	31,732
711,15	31,410
711,33	32,711
711,51	32,638
711,70	29,999
711,88	32,106
712,06	31,942
712,24	33,224
712,43	33,268
712,61	30,681
712,79	31,213
712,97	30,023
713,16	31,114
713,34	28,887
713,52	34,115
713,70	32,368
713,89	30,419
714,07	30,557
714,25	31,934
714,43	33,535
714,62	29,886
714,80	30,517
714,98	29,138
715,16	30,937
715,35	30,089
715,53	30,316
715,71	34,029
715,89	36,206
716,07	32,405
716,26	30,466
716,44	34,010
716,62	32,327
716,80	32,693
716,99	32,186
717,17	34,510
717,35	31,078
717,53	30,621
717,71	31,342
717,90	33,848
718,08	33,914
718,26	32,463
718,44	33,592
718,62	34,163
718,81	32,185
718,99	30,340
719,17	31,222
719,35	30,239
719,53	31,715
719,72	29,356
719,90	30,833
720,08	30,560
720,26	33,953
720,44	31,047
720,62	31,009
720,81	33,944
720,99	32,179
721,17	31,548
721,35	33,127
721,53	29,368
721,72	35,419
721,90	30,041
722,08	30,224
722,26	32,146
722,44	32,243
722,62	31,347
722,81	30,599
722,99	31,262
723,17	30,885
723,35	31,066
723,53	32,346
723,71	33,982
723,89	36,837
724,08	30,994
724,26	30,961
724,44	32,473
724,62	33,438
724,80	29,280
724,98	30,977
725,16	33,988
725,35	31,498
725,53	32,870
725,71	30,497
725,89	30,818
726,07	37,093
726,25	33,038
726,43	28,764
726,61	31,331
726,80	32,772
726,98	30,857
727,16	28,967
727,34	32,747
727,52	30,817
727,70	30,601
727,88	30,903
728,06	29,742
728,25	30,425
728,43	30,443
728,61	30,881
728,79	31,087
728,97	32,756
729,15	30,603
729,33	33,819
729,51	33,110
729,69	32,699
729,87	31,761
730,06	32,498
730,24	33,372
730,42	34,625
730,60	30,111
730,78	32,112
730,96	33,183
731,14	32,389
731,32	31,273
731,50	31,234
731,68	29,403
731,86	34,182
732,04	31,209
732,22	31,756
732,41	38,761
732,59	31,776
732,77	31,665
732,95	31,916
733,13	33,360
733,31	32,299
733,49	29,877
733,67	32,629
733,85	33,074
734,03	30,966
734,21	29,863
734,39	33,329
734,57	32,849
734,75	33,024
734,93	28,390
735,11	32,825
735,29	30,297
735,47	32,947
735,65	30,539
735,84	30,311
736,02	30,905
736,20	35,792
736,38	30,727
736,56	31,812
736,74	31,971
736,92	31,969
737,10	30,496
737,28	33,130
737,46	31,705
737,64	32,505
737,82	30,485
738,00	31,583
738,18	31,173
738,36	33,841
738,54	30,937
738,72	32,037
738,90	33,271
739,08	31,469
739,26	29,793
739,44	29,148
739,62	34,996
739,80	32,257
739,98	31,258
740,16	31,579
740,34	32,176
740,52	34,406
740,70	30,183
740,88	31,777
741,06	33,025
741,24	31,678
741,42	31,000
741,60	29,975
741,78	32,799
741,96	32,652
742,14	31,809
742,32	31,343
742,50	29,785
742,68	31,837
742,86	31,321
743,04	29,127
743,21	33,827
743,39	31,895
743,57	31,395
743,75	32,626
743,93	28,955
744,11	28,229
744,29	32,148
744,47	29,204
744,65	31,440
744,83	30,975
745,01	29,610
745,19	30,478
745,37	34,397
745,55	33,129
745,73	34,605
745,91	31,111
746,09	30,981
746,27	30,860
746,45	30,955
746,62	31,607
746,80	30,071
746,98	31,531
747,16	28,190
747,34	30,968
747,52	30,389
747,70	33,269
747,88	31,064
748,06	32,463
748,24	31,624
748,42	34,054
748,60	30,377
748,78	28,026
748,95	34,149
749,13	35,424
749,31	31,385
749,49	31,579
749,67	32,405
749,85	32,725
750,03	32,343
750,21	31,118
750,39	31,861
750,57	29,239
750,74	32,095
750,92	31,498
751,10	33,067
751,28	30,049
751,46	32,738
751,64	32,592
751,82	31,827
752,00	34,027
752,17	32,222
752,35	34,736
752,53	33,518
752,71	31,198
752,89	31,785
753,07	30,480
753,25	31,722
753,43	29,055
753,60	33,152
753,78	32,005
753,96	32,218
754,14	33,038
754,32	33,851
754,50	32,563
754,68	33,978
754,85	30,414
755,03	31,764
755,21	33,652
755,39	36,031
755,57	33,130
755,75	33,731
755,92	32,139
756,10	31,390
756,28	30,899
756,46	31,360
756,64	32,713
756,82	33,515
756,99	31,315
757,17	29,725
757,35	30,507
757,53	36,191
757,71	35,180
757,89	30,205
758,06	32,825
758,24	33,636
758,42	33,848
758,60	29,258
758,78	33,206
758,95	34,558
759,13	33,434
759,31	32,294
759,49	31,834
759,67	32,922
759,84	31,005
760,02	32,025
760,20	31,285
760,38	33,812
760,56	30,017
760,73	29,994
760,91	29,025
761,09	33,801
761,27	30,827
761,45	30,898
761,62	28,161
761,80	30,916
761,98	32,924
762,16	33,705
762,33	31,092
762,51	32,000
762,69	29,793
762,87	31,802
763,05	33,790
763,22	30,621
763,40	31,995
763,58	33,321
763,76	30,533
763,93	33,689
764,11	33,224
764,29	32,055
764,47	34,226
764,64	33,950
764,82	34,203
765,00	31,664
765,18	29,762
765,35	31,904
765,53	29,864
765,71	32,901
765,89	30,812
766,06	30,480
766,24	31,152
766,42	31,648
766,60	30,189
766,77	32,041
766,95	31,614
767,13	32,665
767,30	31,550
767,48	31,609
767,66	30,915
767,84	30,143
768,01	31,089
768,19	31,645
768,37	30,068
768,54	30,291
768,72	32,330
768,90	31,450
769,08	32,843
769,25	30,295
769,43	29,280
769,61	29,394
769,78	34,088
769,96	30,406
770,14	33,011
770,31	35,546
770,49	34,211
770,67	30,875
770,85	30,221
771,02	32,326
771,20	32,117
771,38	32,253
771,55	31,099
771,73	28,920
771,91	32,940
772,08	32,692
772,26	31,827
772,44	32,686
772,61	31,069
772,79	30,852
772,97	29,638
773,14	28,699
773,32	33,482
773,50	31,160
773,67	33,170
773,85	33,442
774,03	34,206
774,20	31,683
774,38	30,940
774,56	31,964
774,73	30,131
774,91	29,590
775,09	31,713
775,26	33,610
775,44	32,929
775,61	32,213
775,79	30,915
775,97	32,618
776,14	29,428
776,32	32,014
776,50	32,741
776,67	30,700
776,85	33,155
777,03	28,771
777,20	32,296
777,38	34,728
777,55	32,487
777,73	32,097
777,91	29,956
778,08	31,212
778,26	28,664
778,43	33,011
778,61	30,651
778,79	29,730
778,96	33,719
779,14	30,455
779,32	30,791
779,49	30,307
779,67	35,037
779,84	32,891
780,02	32,747
780,20	30,409
780,37	34,680
780,55	27,476
780,72	31,577
780,90	30,609
781,07	32,430
781,25	33,978
781,43	32,653
781,60	30,046
781,78	34,077
781,95	34,291
782,13	31,453
782,30	32,889
782,48	33,020
782,66	31,602
782,83	31,608
783,01	38,583
783,18	34,432
783,36	33,307
783,53	33,322
783,71	31,412
783,89	31,623
784,06	33,977
784,24	32,373
784,41	31,112
784,59	29,107
784,76	35,381
784,94	29,608
785,11	33,790
785,29	33,852
785,46	33,134
785,64	28,395
785,82	34,173
785,99	35,395
786,17	34,033
786,34	30,548
786,52	37,817
786,69	35,255
786,87	31,865
787,04	32,353
787,22	30,128
787,39	33,205
787,57	33,937
787,74	30,384
787,92	35,464
788,09	35,318
788,27	32,598
788,44	33,139
788,62	36,574
788,79	30,123
788,97	33,045
789,14	32,790
789,32	32,183
789,49	33,380
789,67	32,439
789,84	32,503
790,02	35,090
790,19	30,264
790,37	33,084
790,54	32,825
790,72	37,964
790,89	33,966
791,07	36,112
791,24	29,229
791,42	34,123
791,59	36,677
791,77	32,188
791,94	34,485
792,12	33,189
792,29	34,752
792,47	34,784
792,64	34,188
792,81	34,768
792,99	31,184
793,16	30,723
793,34	31,874
793,51	32,553
793,69	34,751
793,86	32,847
794,04	34,953
794,21	36,201
794,39	31,892
794,56	31,489
794,73	34,271
794,91	35,717
795,08	34,288
795,26	31,901
795,43	29,997
795,61	38,067
795,78	31,248
795,95	34,175
796,13	32,692
796,30	34,791
796,48	32,078
796,65	31,194
796,83	36,478
797,00	34,347
797,17	32,057
797,35	33,845
797,52	32,822
797,70	34,773
797,87	34,349
798,04	36,306
798,22	32,731
798,39	33,192
798,57	30,989
798,74	32,486
798,91	31,630
799,09	34,378
799,26	35,679
799,44	34,491
799,61	30,906
799,78	33,125
799,96	38,286
800,13	32,751
800,31	36,155
800,48	36,521
800,65	39,805
800,83	36,846
801,00	32,548
801,17	33,405
801,35	35,896
801,52	39,079
801,70	36,403
801,87	35,925
802,04	36,194
802,22	30,223
802,39	33,348
802,56	37,053
802,74	36,215
802,91	32,183
803,08	31,711
803,26	37,094
803,43	38,524
803,61	30,289
803,78	32,499
803,95	34,880
804,13	35,728
804,30	29,901
804,47	37,555
804,65	35,511
804,82	34,340
804,99	35,027
805,17	32,634
805,34	40,411
805,51	38,598
805,69	31,666
805,86	35,328
806,03	44,517
806,21	37,918
806,38	37,936
806,55	30,716
806,72	36,636
806,90	41,510
807,07	35,903
807,24	33,239
807,42	31,020
807,59	34,696
807,76	29,258
807,94	33,491
808,11	38,073
808,28	41,023
808,45	33,617
808,63	31,177
808,80	40,418
808,97	33,127
809,15	35,343
809,32	35,950
809,49	35,798
809,67	36,103
809,84	38,103
810,01	36,678
810,18	48,037
810,36	41,616
810,53	34,704
810,70	38,213
810,87	31,610
811,05	38,404
811,22	36,466
811,39	33,987
811,57	36,796
811,74	34,330
811,91	39,533
812,08	34,729
812,26	36,191
812,43	31,512
812,60	41,501
812,77	33,724
812,95	38,100
813,12	34,733
813,29	32,540
813,46	37,364
813,64	39,736
813,81	37,120
813,98	37,111
814,15	38,954
814,32	40,685
814,50	35,917
814,67	36,001
814,84	38,139
815,01	36,997
815,19	31,662
815,36	37,178
815,53	34,279
815,70	35,166
815,87	45,771
816,05	36,882
816,22	38,595
816,39	39,508
816,56	39,654
816,74	41,495
816,91	38,605
817,08	41,023
817,25	41,436
817,42	38,499
817,60	36,623
817,77	43,985
817,94	33,594
818,11	38,629
818,28	31,542
818,45	39,217
818,63	36,034
818,80	39,333
818,97	33,699
819,14	38,161
819,31	41,543
819,49	39,163
819,66	34,916
819,83	42,394
820,00	41,784
820,17	33,867
820,34	38,257
820,52	43,112
820,69	40,091
820,86	37,040
821,03	37,690
821,20	42,026
821,37	39,709
821,55	36,665
821,72	28,579
821,89	42,155
822,06	43,900
822,23	35,155
822,40	34,216
822,57	45,084
822,75	41,809
822,92	28,827
823,09	37,994
823,26	39,940
823,43	41,409
823,60	38,900
823,77	37,003
823,94	42,907
824,12	44,491
824,29	33,415
824,46	41,744
824,63	50,422
824,80	46,227
824,97	35,959
825,14	37,514
825,31	40,235
825,49	37,732
825,66	29,219
825,83	36,383
826,00	38,500
826,17	47,565
826,34	43,558
826,51	32,929
826,68	35,587
826,85	36,435
827,02	29,621
827,20	37,234
827,37	34,974
827,54	39,994
827,71	41,484
827,88	37,927
828,05	42,603
828,22	42,999
828,39	35,863
828,56	37,018
828,73	43,020
828,90	39,323
829,07	39,124
829,25	37,158
829,42	36,753
829,59	33,596
829,76	38,521
829,93	40,481
830,10	37,520
830,27	39,346
830,44	32,772
830,61	29,614
830,78	35,460
830,95	44,416
831,12	33,773
831,29	36,709
831,46	31,421
831,63	34,711
831,80	49,302
831,97	37,578
832,14	43,740
832,31	46,864
832,48	38,204
832,65	40,814
832,83	39,111
833,00	43,335
833,17	38,022
833,34	42,847
833,51	46,199
833,68	46,709
833,85	38,275
834,02	32,294
834,19	44,037
834,36	44,209
834,53	32,020
834,70	40,300
834,87	49,179
835,04	38,606
835,21	39,047
835,38	42,495
835,55	35,172
835,72	54,226
835,89	36,920
836,06	32,650
836,23	52,459
836,40	36,012
836,57	36,191
836,74	38,494
836,91	38,410
837,08	48,770
837,25	38,942
837,42	37,205
837,59	37,090
837,76	44,958
837,93	38,768
838,09	39,964
838,26	40,680
838,43	48,055
838,60	47,391
838,77	41,299
838,94	40,861
839,11	54,612
839,28	44,161
839,45	43,703
839,62	40,002
839,79	39,486
839,96	41,391
840,13	48,408
840,30	39,114
840,47	37,997
840,64	48,560
840,81	44,769
840,98	34,764
841,15	47,211
841,32	36,643
841,48	49,979
841,65	40,566
841,82	36,374
841,99	39,142
842,16	42,252
842,33	37,801
842,50	48,821
842,67	29,865
842,84	38,912
843,01	43,322
843,18	38,993
843,35	42,128
843,52	34,569
843,68	46,592
843,85	44,827
844,02	30,837
844,19	38,551
844,36	45,750
844,53	35,769
844,70	33,923
844,87	53,525
845,04	42,145
845,21	28,016
845,37	49,301
845,54	40,605
845,71	43,035
845,88	61,795
846,05	39,662
846,22	27,425
846,39	42,913
846,56	50,432
846,72	27,331
846,89	34,234
847,06	54,239
847,23	49,599
847,40	31,842
847,57	36,123
847,74	41,004
847,90	55,489
848,07	49,907
848,24	40,515
848,41	56,356
848,58	60,861
848,75	42,674
848,92	33,043
849,08	41,755
849,25	42,329
849,42	39,492
849,59	53,949
849,76	41,506
849,93	48,756
850,09	51,038
850,26	28,757
850,43	55,314
850,60	35,134
850,77	34,743
850,94	39,860
851,10	46,074
851,27	36,944
851,44	40,442
851,61	43,875
851,78	62,716
851,95	55,056
852,11	41,264
852,28	39,258
852,45	54,717
852,62	63,357
852,79	50,779
852,95	44,887
853,12	50,684
853,29	44,045
853,46	42,542
853,63	44,245
853,79	35,699
853,96	46,395
854,13	55,561
854,30	34,522
854,46	64,827
854,63	43,456
854,80	52,429
854,97	46,496
855,14	67,800
855,30	60,661
855,47	58,019
855,64	45,352
855,81	44,383
855,97	67,072
856,14	56,504
856,31	26,826
856,48	58,293
856,65	62,220
856,81	56,132
856,98	34,718
857,15	29,253
857,32	63,182
857,48	42,987
857,65	60,800
857,82	60,189
857,99	57,057
858,15	57,332
858,32	48,120
858,49	36,927
858,65	77,493
858,82	48,745
858,99	57,736
859,16	63,447
859,32	55,766
859,49	54,833
859,66	56,415
859,83	58,581
859,99	41,314
860,16	37,888
860,33	56,869
860,49	51,728
860,66	49,372
860,83	43,849
861,00	48,936
861,16	65,102
861,33	62,319
861,50	30,271
861,66	55,871
861,83	68,074
862,00	50,495
862,16	38,493
862,33	50,300
862,50	86,189
862,67	49,551
862,83	64,305
863,00	63,101
863,17	62,437
863,33	56,986
863,50	33,657
863,67	52,430
863,83	54,768
864,00	64,714
864,17	50,138
864,33	36,453
864,50	45,958
864,67	60,383
864,83	46,020
865,00	54,644
865,17	36,265
865,33	76,464
865,50	39,358
865,67	54,173
865,83	60,672
866,00	71,994
866,17	53,799
866,33	53,865
866,50	49,061
866,66	52,659
866,83	45,719
867,00	62,714
867,16	78,129
867,33	99,379
867,50	50,698
867,66	44,642
867,83	60,903
868,00	70,058
868,16	62,756
868,33	53,228
868,49	32,946
868,66	76,374
868,83	58,844
868,99	74,448
869,16	100,322
869,32	80,383
869,49	56,424
869,66	35,799
869,82	88,180
869,99	72,898
870,15	63,180
870,32	58,014
870,49	126,662
870,65	94,807
870,82	68,940
870,98	59,214
871,15	102,433
871,32	88,399
871,48	42,245
871,65	49,323
871,81	78,147
871,98	47,915
872,15	50,187
872,31	42,278
872,48	88,408
872,64	50,938
872,81	85,173
872,97	50,452
873,14	107,020
873,31	60,462
873,47	57,189
873,64	65,849
873,80	122,369
873,97	109,075
874,13	88,489
874,30	49,467
874,46	65,070
874,63	83,179
874,80	41,399
874,96	50,135
875,13	101,569
875,29	74,484
875,46	67,559
875,62	29,938
875,79	103,312
875,95	42,691
876,12	35,150
876,28	29,964
876,45	131,769
876,61	28,036
876,78	49,534
876,94	39,598
877,11	85,042
877,27	144,454
877,44	78,932
877,60	78,903
877,77	67,472
877,94	182,759
878,10	51,320
878,27	88,770
878,43	139,795
878,60	78,293
878,76	100,167
878,93	80,615
879,09	68,482
879,26	139,095
879,42	86,676
879,58	55,045
879,75	132,674
879,91	121,354
880,08	63,151
880,24	87,269
880,41	36,971
880,57	81,236
880,74	125,004
880,90	72,091
881,07	124,204
881,23	133,600
881,40	82,240
881,56	89,383
881,73	157,400
881,89	94,092
882,06	57,404
882,22	129,625
882,38	127,182
882,55	154,915
882,71	88,219
882,88	70,863
883,04	120,497
883,21	112,365
883,37	121,766
883,54	92,919
883,70	238,799
883,86	138,125
884,03	161,627
884,19	95,283
884,36	160,440
884,52	180,667
884,69	132,079
884,85	36,073
885,01	94,834
885,18	147,521
885,34	76,150
885,51	64,021
885,67	106,421
>>>>> Data<<<<< Espectral Procesado Extremo
