Fichero De Datos De SpectraSuite
++++++++++++++++++++++++++++++++++++
Fecha: Wed Apr 22 09:12:13 CEST 2009
Usuario: evoflor
Presente Oscuro Del Espectro: Sí
La Referencia de Presente Del Espectro De: Sí
Muestreados de los componentes de Número de espectros: 1
Espectrómetros: USB4F02353
Tiempo de integración (usec): 500000 (USB4F02353)
Promedio de Espectros Hechos un: 5 (USB4F02353)
El Alisar Del Furgón: 0 (USB4F02353)
Párrafo de de Corregir del la del del de Eléctrica del obscuridad: Sí (USB4F02353)
Estrobo/Lámpara Permitido: No (USB4F02353)
Correct for Detector Non-linearity: No (USB4F02353)
Párrafo de de Corregir del la del del de Externa del luz: No (USB4F02353)
Procesado del espectro de Número de pixeles en: 3648
>>>>> Comienza Data<<<<< Espectral Procesado Del EL
177,79	944,307
178,00	944,307
178,22	944,307
178,44	-9959,279
178,66	587,879
178,88	-35,104
179,09	304,627
179,31	191,209
179,53	-6583,812
179,75	497,168
179,96	195,301
180,18	429,583
180,40	-358,326
180,62	-170,671
180,83	205,960
181,05	-1160,940
181,27	-488,567
181,49	-59,796
181,70	-460,266
181,92	406,367
182,14	195,792
182,36	-976,967
182,58	266,827
182,79	-951,311
183,01	-14638,943
183,23	403,070
183,45	-156,329
183,66	150,533
183,88	1005,947
184,10	940,638
184,32	1164,508
184,53	-273,645
184,75	601,308
184,97	-182,172
185,18	1163,544
185,40	357,544
185,62	-719,762
185,84	2657,543
186,05	4164,563
186,27	-6935,132
186,49	-1757,864
186,71	215,606
186,92	599,132
187,14	1476,567
187,36	341,962
187,58	667,426
187,79	-639,309
188,01	-1287,143
188,23	165,976
188,45	181,536
188,66	170,019
188,88	290,368
189,10	-317,094
189,31	-138,493
189,53	-51,391
189,75	1405,075
189,97	153,117
190,18	950,647
190,40	1666,185
190,62	315,055
190,83	463,658
191,05	-201,651
191,27	7136,204
191,49	589,277
191,70	1053,408
191,92	576,483
192,14	325,093
192,35	-1409,761
192,57	-727,699
192,79	-1510,164
193,01	714,971
193,22	163,105
193,44	-647,761
193,66	391,146
193,87	1187,060
194,09	96,687
194,31	195,661
194,53	-425,420
194,74	391,008
194,96	-283,500
195,18	377,162
195,39	-1424,493
195,61	-354,885
195,83	4197,754
196,04	399,889
196,26	204,014
196,48	1862,038
196,70	518,612
196,91	184,324
197,13	-194,743
197,35	262,058
197,56	-532,630
197,78	5831,265
198,00	503,858
198,21	123,717
198,43	847,581
198,65	336,635
198,86	137,261
199,08	845,136
199,30	87,681
199,51	1269,231
199,73	-2030,923
199,95	304,231
200,16	672,449
200,38	222,291
200,60	3373,545
200,81	-450,815
201,03	10299,043
201,25	691,908
201,46	-602,772
201,68	713,043
201,90	596,375
202,11	725,498
202,33	225,889
202,55	140,903
202,76	682,890
202,98	451,693
203,20	294,595
203,41	-1017,092
203,63	532,229
203,85	148,664
204,06	-547,774
204,28	171,952
204,50	-234,270
204,71	484,654
204,93	-6,950
205,15	24,186
205,36	-155,098
205,58	81,722
205,80	-1909,423
206,01	-3190,802
206,23	274,118
206,45	468,687
206,66	344,975
206,88	-501,085
207,10	2997,271
207,31	-55261,589
207,53	311,008
207,75	216,175
207,96	485,926
208,18	435,545
208,39	247,672
208,61	970,646
208,83	9563,509
209,04	522,379
209,26	608,397
209,48	54,905
209,69	-135,356
209,91	1235,132
210,13	6,021
210,34	210,488
210,56	386,592
210,77	2175,970
210,99	375,509
211,21	-278,465
211,42	163,979
211,64	361,294
211,86	459,803
212,07	251,203
212,29	761,241
212,50	1401,087
212,72	204,562
212,94	470,722
213,15	388,263
213,37	552,886
213,58	149,011
213,80	503,223
214,02	3030,836
214,23	369,398
214,45	275,985
214,67	27,952
214,88	4,407
215,10	1699,265
215,31	205,059
215,53	101,136
215,75	406,485
215,96	651,309
216,18	109,050
216,39	378,695
216,61	641,378
216,83	1397,910
217,04	422,243
217,26	123,674
217,47	391,101
217,69	343,885
217,91	110,515
218,12	634,754
218,34	129,260
218,55	231,097
218,77	28,151
218,99	160,075
219,20	201,574
219,42	457,129
219,63	90,243
219,85	246,093
220,06	346,518
220,28	132,599
220,50	90,511
220,71	98,545
220,93	451,523
221,14	459,765
221,36	4,735
221,58	118,420
221,79	71,345
222,01	230,828
222,22	196,302
222,44	81,876
222,65	208,200
222,87	-4,508
223,09	122,638
223,30	48,352
223,52	352,538
223,73	82,801
223,95	30,822
224,16	50,418
224,38	74,784
224,60	83,376
224,81	103,193
225,03	79,165
225,24	101,081
225,46	27,477
225,67	1,930
225,89	36,492
226,10	91,160
226,32	85,425
226,54	24,174
226,75	26,500
226,97	112,816
227,18	108,604
227,40	82,741
227,61	52,930
227,83	45,836
228,04	124,199
228,26	83,650
228,47	23,863
228,69	89,004
228,91	80,069
229,12	131,736
229,34	39,445
229,55	58,597
229,77	45,895
229,98	30,084
230,20	40,331
230,41	-3,040
230,63	82,348
230,84	39,984
231,06	52,882
231,27	-2,721
231,49	53,801
231,71	31,761
231,92	3,340
232,14	-5,810
232,35	38,102
232,57	-2,375
232,78	19,269
233,00	22,206
233,21	28,138
233,43	29,275
233,64	1,981
233,86	23,483
234,07	50,737
234,29	1,375
234,50	11,898
234,72	26,353
234,93	26,796
235,15	2,189
235,36	19,976
235,58	42,811
235,79	36,099
236,01	17,488
236,22	20,797
236,44	32,918
236,65	24,877
236,87	12,239
237,08	10,880
237,30	-5,048
237,51	25,003
237,73	21,465
237,94	7,294
238,16	18,948
238,37	3,892
238,59	4,515
238,80	6,201
239,02	2,279
239,23	26,491
239,45	1,850
239,66	23,796
239,88	27,617
240,09	19,742
240,31	9,891
240,52	5,935
240,74	17,570
240,95	11,545
241,17	9,282
241,38	8,514
241,60	-4,169
241,81	17,169
242,03	3,004
242,24	9,331
242,46	8,535
242,67	-1,407
242,89	16,693
243,10	8,170
243,32	12,245
243,53	17,407
243,75	3,608
243,96	12,637
244,18	6,933
244,39	12,552
244,60	-1,090
244,82	6,535
245,03	16,838
245,25	9,825
245,46	23,375
245,68	-1,307
245,89	27,942
246,11	21,439
246,32	7,172
246,54	8,836
246,75	3,349
246,97	18,182
247,18	15,284
247,39	4,928
247,61	13,364
247,82	13,700
248,04	2,540
248,25	-1,483
248,47	7,002
248,68	9,785
248,90	4,124
249,11	7,757
249,33	17,468
249,54	9,830
249,75	7,531
249,97	2,943
250,18	15,738
250,40	9,342
250,61	7,051
250,83	-0,547
251,04	3,985
251,25	12,668
251,47	10,782
251,68	5,953
251,90	9,375
252,11	8,205
252,33	4,988
252,54	4,667
252,76	-0,446
252,97	-2,509
253,18	8,094
253,40	7,865
253,61	5,525
253,83	7,016
254,04	9,169
254,25	0,579
254,47	-1,211
254,68	5,558
254,90	4,816
255,11	1,012
255,33	9,092
255,54	4,051
255,75	2,105
255,97	5,081
256,18	2,755
256,40	7,412
256,61	8,937
256,82	5,025
257,04	8,850
257,25	3,526
257,47	5,912
257,68	8,467
257,89	4,931
258,11	4,871
258,32	8,344
258,54	4,016
258,75	13,328
258,96	7,311
259,18	5,887
259,39	4,540
259,61	11,108
259,82	1,345
260,03	0,322
260,25	6,588
260,46	5,542
260,68	2,976
260,89	3,092
261,10	6,183
261,32	6,633
261,53	-1,353
261,75	7,971
261,96	1,857
262,17	17,804
262,39	8,789
262,60	-1,613
262,81	3,313
263,03	9,164
263,24	9,525
263,46	3,016
263,67	4,332
263,88	7,319
264,10	3,306
264,31	2,971
264,52	2,341
264,74	7,687
264,95	6,498
265,17	7,881
265,38	5,336
265,59	12,395
265,81	6,818
266,02	1,206
266,23	-3,193
266,45	11,031
266,66	7,695
266,87	4,706
267,09	2,543
267,30	9,568
267,52	11,412
267,73	4,575
267,94	0,703
268,16	8,078
268,37	1,625
268,58	3,726
268,80	-1,803
269,01	8,009
269,22	6,260
269,44	8,482
269,65	7,936
269,86	2,321
270,08	5,910
270,29	3,044
270,50	1,901
270,72	7,045
270,93	2,091
271,14	4,014
271,36	4,276
271,57	8,634
271,78	4,289
272,00	3,481
272,21	7,850
272,42	5,075
272,64	10,004
272,85	0,651
273,06	1,054
273,28	7,067
273,49	1,647
273,70	5,891
273,92	5,687
274,13	3,742
274,34	-2,029
274,56	5,250
274,77	4,000
274,98	8,393
275,20	10,195
275,41	3,631
275,62	2,574
275,84	6,312
276,05	12,256
276,26	2,212
276,47	4,875
276,69	9,888
276,90	7,994
277,11	3,626
277,33	0,088
277,54	10,740
277,75	5,665
277,97	-0,835
278,18	1,766
278,39	8,147
278,61	1,215
278,82	8,376
279,03	6,675
279,24	2,112
279,46	6,250
279,67	10,684
279,88	2,038
280,10	9,155
280,31	2,901
280,52	2,088
280,73	3,493
280,95	7,178
281,16	3,770
281,37	3,225
281,59	4,427
281,80	7,181
282,01	2,521
282,22	1,490
282,44	4,197
282,65	11,875
282,86	2,616
283,08	1,546
283,29	4,098
283,50	0,795
283,71	4,660
283,93	4,024
284,14	1,125
284,35	5,070
284,56	3,877
284,78	-1,736
284,99	5,574
285,20	9,999
285,42	3,003
285,63	3,232
285,84	0,599
286,05	3,699
286,27	3,811
286,48	5,625
286,69	7,091
286,90	3,958
287,12	2,334
287,33	0,706
287,54	1,743
287,75	8,801
287,97	2,917
288,18	2,874
288,39	3,709
288,60	4,489
288,82	2,875
289,03	2,786
289,24	4,646
289,45	7,508
289,67	4,226
289,88	2,766
290,09	6,848
290,30	3,628
290,52	0,985
290,73	-1,410
290,94	2,117
291,15	2,551
291,37	4,935
291,58	2,580
291,79	4,204
292,00	2,820
292,21	4,042
292,43	4,160
292,64	0,591
292,85	4,585
293,06	5,886
293,28	1,885
293,49	2,084
293,70	7,743
293,91	0,625
294,12	3,682
294,34	2,569
294,55	5,030
294,76	3,927
294,97	6,248
295,19	3,200
295,40	3,677
295,61	4,156
295,82	4,076
296,03	4,230
296,25	3,683
296,46	0,999
296,67	2,986
296,88	3,377
297,09	1,582
297,31	-0,341
297,52	6,023
297,73	0,616
297,94	2,090
298,15	5,995
298,37	1,514
298,58	3,794
298,79	4,093
299,00	-1,225
299,21	4,154
299,43	-0,338
299,64	8,369
299,85	2,593
300,06	0,705
300,27	3,087
300,49	6,764
300,70	6,602
300,91	1,478
301,12	1,441
301,33	6,549
301,54	2,197
301,76	4,456
301,97	1,729
302,18	5,462
302,39	6,758
302,60	2,856
302,82	1,036
303,03	8,372
303,24	3,363
303,45	4,763
303,66	5,713
303,87	-0,753
304,09	5,320
304,30	-0,126
304,51	2,815
304,72	0,766
304,93	4,095
305,14	2,056
305,36	2,327
305,57	-0,665
305,78	6,921
305,99	2,718
306,20	3,955
306,41	0,112
306,62	-0,505
306,84	2,258
307,05	3,979
307,26	2,132
307,47	8,633
307,68	1,792
307,89	0,843
308,11	5,975
308,32	4,370
308,53	1,312
308,74	1,228
308,95	2,384
309,16	8,162
309,37	3,785
309,59	2,392
309,80	3,776
310,01	2,406
310,22	3,777
310,43	5,448
310,64	4,175
310,85	6,027
311,06	1,174
311,28	4,687
311,49	2,850
311,70	7,107
311,91	2,311
312,12	1,232
312,33	2,370
312,54	4,268
312,75	6,915
312,97	1,755
313,18	6,475
313,39	1,414
313,60	2,400
313,81	2,769
314,02	5,931
314,23	6,174
314,44	2,256
314,65	0,288
314,87	1,696
315,08	1,107
315,29	1,845
315,50	5,550
315,71	8,015
315,92	7,725
316,13	1,739
316,34	3,658
316,55	5,791
316,77	-1,080
316,98	-0,228
317,19	0,809
317,40	5,635
317,61	5,597
317,82	5,023
318,03	0,465
318,24	3,512
318,45	6,384
318,66	4,656
318,87	1,732
319,09	4,755
319,30	4,985
319,51	6,543
319,72	3,740
319,93	3,647
320,14	5,364
320,35	5,636
320,56	-1,423
320,77	2,095
320,98	5,404
321,19	6,824
321,40	4,575
321,62	4,128
321,83	-0,527
322,04	3,726
322,25	5,237
322,46	8,033
322,67	6,549
322,88	5,891
323,09	3,736
323,30	8,398
323,51	8,607
323,72	2,935
323,93	1,592
324,14	1,689
324,35	-0,206
324,56	1,093
324,77	2,384
324,99	3,182
325,20	2,307
325,41	4,877
325,62	3,131
325,83	-3,172
326,04	1,576
326,25	3,647
326,46	-0,142
326,67	2,513
326,88	3,871
327,09	2,609
327,30	3,428
327,51	3,277
327,72	2,073
327,93	3,389
328,14	1,417
328,35	4,356
328,56	3,430
328,77	5,479
328,98	6,149
329,19	1,962
329,40	2,740
329,61	1,129
329,82	-0,007
330,04	5,883
330,25	2,475
330,46	3,093
330,67	1,768
330,88	5,363
331,09	0,778
331,30	3,564
331,51	2,967
331,72	3,636
331,93	6,056
332,14	-0,597
332,35	3,332
332,56	1,966
332,77	7,713
332,98	1,159
333,19	2,818
333,40	3,741
333,61	2,616
333,82	4,755
334,03	3,132
334,24	10,858
334,45	4,659
334,66	5,655
334,87	2,914
335,08	1,056
335,29	1,115
335,50	2,523
335,71	-0,471
335,92	5,473
336,13	4,215
336,34	-0,589
336,55	4,018
336,76	4,043
336,97	2,936
337,18	3,449
337,39	4,058
337,60	4,374
337,81	3,445
338,02	6,660
338,23	1,672
338,44	3,262
338,65	-0,120
338,86	4,993
339,07	4,214
339,28	0,950
339,49	3,484
339,70	-0,774
339,91	3,440
340,11	9,458
340,32	3,987
340,53	1,085
340,74	-0,989
340,95	1,374
341,16	2,974
341,37	5,198
341,58	4,086
341,79	1,076
342,00	1,430
342,21	-3,061
342,42	3,099
342,63	7,442
342,84	3,747
343,05	3,980
343,26	7,394
343,47	3,838
343,68	1,298
343,89	1,459
344,10	1,553
344,31	2,344
344,52	3,991
344,73	0,127
344,94	1,037
345,14	2,856
345,35	2,849
345,56	-1,263
345,77	2,381
345,98	1,730
346,19	5,417
346,40	6,856
346,61	-0,507
346,82	2,784
347,03	5,061
347,24	2,489
347,45	5,417
347,66	5,859
347,87	1,967
348,08	7,265
348,28	4,239
348,49	0,447
348,70	5,514
348,91	3,442
349,12	3,000
349,33	-1,612
349,54	5,719
349,75	2,721
349,96	3,296
350,17	6,327
350,38	1,168
350,59	2,707
350,80	3,256
351,00	1,523
351,21	9,844
351,42	0,432
351,63	4,561
351,84	2,307
352,05	6,714
352,26	2,914
352,47	4,694
352,68	7,052
352,89	3,780
353,09	2,571
353,30	0,585
353,51	0,727
353,72	8,209
353,93	8,314
354,14	2,537
354,35	2,051
354,56	6,017
354,77	1,233
354,98	1,298
355,18	5,257
355,39	10,690
355,60	0,841
355,81	4,614
356,02	2,176
356,23	2,256
356,44	4,874
356,65	2,492
356,85	6,107
357,06	8,853
357,27	1,749
357,48	-1,319
357,69	6,934
357,90	5,472
358,11	-2,952
358,32	0,140
358,52	6,399
358,73	2,945
358,94	2,015
359,15	2,811
359,36	8,736
359,57	3,372
359,78	7,538
359,98	4,771
360,19	0,952
360,40	2,389
360,61	6,316
360,82	2,500
361,03	8,756
361,24	12,710
361,44	0,642
361,65	4,974
361,86	1,624
362,07	2,889
362,28	9,022
362,49	6,824
362,70	5,649
362,90	5,290
363,11	3,022
363,32	1,804
363,53	4,502
363,74	7,298
363,95	8,308
364,15	2,634
364,36	9,091
364,57	2,182
364,78	3,106
364,99	0,248
365,20	6,447
365,40	9,902
365,61	2,541
365,82	5,103
366,03	8,162
366,24	0,414
366,45	-1,002
366,65	0,774
366,86	0,908
367,07	2,605
367,28	-0,114
367,49	1,362
367,69	4,209
367,90	4,063
368,11	4,046
368,32	3,655
368,53	7,918
368,73	0,905
368,94	3,711
369,15	6,591
369,36	4,328
369,57	4,412
369,78	3,686
369,98	5,102
370,19	6,631
370,40	-0,319
370,61	6,223
370,82	5,120
371,02	7,888
371,23	4,204
371,44	3,243
371,65	2,548
371,85	10,094
372,06	0,423
372,27	5,696
372,48	2,539
372,69	7,978
372,89	5,088
373,10	2,461
373,31	5,277
373,52	3,261
373,73	6,499
373,93	6,408
374,14	3,373
374,35	5,684
374,56	4,080
374,76	6,170
374,97	3,327
375,18	7,995
375,39	5,958
375,60	5,574
375,80	2,141
376,01	2,473
376,22	7,116
376,43	4,532
376,63	5,407
376,84	5,911
377,05	4,654
377,26	2,439
377,46	3,773
377,67	2,405
377,88	-2,610
378,09	4,444
378,29	3,653
378,50	0,810
378,71	4,881
378,92	1,802
379,12	1,146
379,33	1,727
379,54	6,145
379,75	7,386
379,95	5,036
380,16	4,262
380,37	7,170
380,58	2,278
380,78	6,371
380,99	0,487
381,20	3,489
381,41	8,176
381,61	2,848
381,82	4,391
382,03	7,141
382,24	5,719
382,44	2,207
382,65	4,167
382,86	8,544
383,06	7,131
383,27	4,860
383,48	3,761
383,69	7,471
383,89	2,211
384,10	0,248
384,31	5,806
384,51	7,004
384,72	8,575
384,93	1,408
385,14	-0,727
385,34	1,718
385,55	1,080
385,76	-1,122
385,96	5,575
386,17	3,909
386,38	2,624
386,59	8,630
386,79	7,057
387,00	9,863
387,21	8,600
387,41	3,201
387,62	5,363
387,83	5,841
388,03	3,745
388,24	3,068
388,45	3,805
388,66	6,167
388,86	2,169
389,07	3,118
389,28	13,124
389,48	2,915
389,69	3,147
389,90	0,469
390,10	1,673
390,31	7,899
390,52	1,607
390,72	2,295
390,93	5,548
391,14	5,325
391,34	5,019
391,55	4,238
391,76	8,517
391,96	9,567
392,17	2,303
392,38	3,650
392,58	4,033
392,79	2,958
393,00	-0,363
393,20	3,327
393,41	5,161
393,62	11,006
393,82	1,956
394,03	5,472
394,24	2,906
394,44	9,079
394,65	8,726
394,86	4,167
395,06	8,259
395,27	4,880
395,48	3,234
395,68	1,482
395,89	3,691
396,10	10,264
396,30	2,053
396,51	3,425
396,72	3,531
396,92	-1,898
397,13	7,838
397,34	0,108
397,54	5,784
397,75	1,949
397,95	1,723
398,16	2,860
398,37	5,924
398,57	-0,810
398,78	3,419
398,99	6,463
399,19	6,697
399,40	10,887
399,60	3,144
399,81	6,249
400,02	11,464
400,22	4,679
400,43	8,090
400,64	0,812
400,84	0,156
401,05	6,358
401,25	5,783
401,46	4,176
401,67	7,030
401,87	4,248
402,08	1,147
402,29	5,259
402,49	12,606
402,70	6,428
402,90	2,916
403,11	5,801
403,32	-0,430
403,52	0,643
403,73	3,782
403,93	7,222
404,14	14,161
404,35	3,449
404,55	-0,207
404,76	2,999
404,96	6,271
405,17	11,076
405,38	11,651
405,58	4,726
405,79	9,265
405,99	12,991
406,20	5,737
406,40	5,075
406,61	6,730
406,82	7,824
407,02	8,482
407,23	1,707
407,43	5,857
407,64	1,061
407,85	5,095
408,05	-0,518
408,26	16,689
408,46	12,612
408,67	5,913
408,87	6,549
409,08	4,451
409,29	14,489
409,49	11,223
409,70	8,227
409,90	6,689
410,11	9,350
410,31	8,953
410,52	8,188
410,72	6,743
410,93	9,036
411,14	7,732
411,34	3,216
411,55	7,548
411,75	11,351
411,96	10,789
412,16	9,750
412,37	7,414
412,57	8,750
412,78	12,939
412,99	9,992
413,19	13,389
413,40	5,782
413,60	9,173
413,81	8,485
414,01	9,008
414,22	8,731
414,42	8,128
414,63	4,874
414,83	6,301
415,04	16,274
415,24	11,296
415,45	8,846
415,65	10,568
415,86	14,881
416,07	9,636
416,27	15,068
416,48	16,351
416,68	17,535
416,89	5,705
417,09	14,541
417,30	17,670
417,50	5,552
417,71	13,270
417,91	13,474
418,12	12,223
418,32	14,497
418,53	6,282
418,73	11,074
418,94	12,543
419,14	15,273
419,35	10,755
419,55	11,751
419,76	15,763
419,96	15,671
420,17	12,577
420,37	9,850
420,58	16,243
420,78	13,835
420,99	12,495
421,19	17,751
421,40	20,351
421,60	17,606
421,81	9,794
422,01	14,193
422,22	15,996
422,42	19,305
422,63	16,190
422,83	17,324
423,04	22,414
423,24	25,835
423,45	12,993
423,65	14,145
423,86	19,374
424,06	20,735
424,27	12,307
424,47	13,713
424,67	10,679
424,88	16,968
425,08	13,046
425,29	20,690
425,49	11,314
425,70	14,357
425,90	14,260
426,11	16,016
426,31	15,393
426,52	18,404
426,72	14,857
426,93	13,597
427,13	23,017
427,33	12,495
427,54	18,939
427,74	17,695
427,95	23,151
428,15	17,464
428,36	17,555
428,56	15,859
428,77	16,092
428,97	18,148
429,18	16,175
429,38	16,139
429,58	17,141
429,79	20,834
429,99	15,027
430,20	17,350
430,40	22,374
430,61	18,441
430,81	18,615
431,01	22,420
431,22	22,421
431,42	21,526
431,63	13,578
431,83	18,376
432,04	21,880
432,24	18,921
432,44	20,079
432,65	19,007
432,85	16,668
433,06	19,422
433,26	17,755
433,47	19,089
433,67	17,560
433,87	18,586
434,08	17,813
434,28	13,244
434,49	16,457
434,69	29,996
434,89	20,873
435,10	17,775
435,30	23,379
435,51	16,074
435,71	17,839
435,91	16,842
436,12	15,004
436,32	16,916
436,53	19,635
436,73	16,386
436,93	18,882
437,14	19,027
437,34	22,393
437,55	18,391
437,75	22,521
437,95	25,729
438,16	16,492
438,36	19,476
438,57	22,004
438,77	17,914
438,97	20,829
439,18	21,405
439,38	21,403
439,58	19,910
439,79	20,150
439,99	14,982
440,20	27,010
440,40	24,989
440,60	21,698
440,81	23,236
441,01	22,398
441,21	23,626
441,42	21,743
441,62	22,138
441,83	21,969
442,03	21,266
442,23	22,784
442,44	23,339
442,64	22,783
442,84	17,637
443,05	24,034
443,25	21,483
443,45	23,096
443,66	21,126
443,86	20,477
444,06	22,404
444,27	19,497
444,47	27,829
444,67	23,826
444,88	21,691
445,08	23,323
445,28	17,801
445,49	23,293
445,69	22,259
445,90	25,299
446,10	26,062
446,30	20,807
446,51	21,280
446,71	24,612
446,91	25,995
447,12	29,318
447,32	21,196
447,52	22,626
447,72	25,233
447,93	21,064
448,13	19,645
448,33	29,097
448,54	25,244
448,74	18,693
448,94	22,564
449,15	29,954
449,35	19,617
449,55	27,651
449,76	22,304
449,96	20,768
450,16	23,239
450,37	19,408
450,57	24,321
450,77	20,163
450,98	23,955
451,18	25,377
451,38	25,894
451,58	25,078
451,79	21,601
451,99	23,096
452,19	26,411
452,40	32,853
452,60	19,733
452,80	25,207
453,00	25,665
453,21	21,898
453,41	29,176
453,61	20,117
453,82	25,889
454,02	20,787
454,22	37,836
454,42	24,739
454,63	23,509
454,83	20,056
455,03	28,616
455,24	23,233
455,44	24,613
455,64	21,606
455,84	24,240
456,05	18,337
456,25	19,717
456,45	23,889
456,65	24,064
456,86	25,980
457,06	25,050
457,26	29,257
457,47	30,267
457,67	22,928
457,87	20,502
458,07	25,640
458,28	27,705
458,48	30,501
458,68	22,686
458,88	34,012
459,09	21,150
459,29	31,778
459,49	15,972
459,69	24,790
459,90	24,959
460,10	24,249
460,30	28,582
460,50	22,562
460,71	25,513
460,91	19,868
461,11	28,964
461,31	25,705
461,52	28,637
461,72	25,616
461,92	22,046
462,12	32,026
462,32	21,481
462,53	23,338
462,73	21,020
462,93	27,748
463,13	29,717
463,34	23,611
463,54	26,519
463,74	22,962
463,94	24,564
464,14	27,463
464,35	21,034
464,55	28,791
464,75	33,005
464,95	26,326
465,16	21,743
465,36	33,140
465,56	24,478
465,76	21,240
465,96	25,123
466,17	26,437
466,37	21,205
466,57	28,293
466,77	27,339
466,97	23,923
467,18	29,892
467,38	24,765
467,58	32,396
467,78	28,451
467,98	25,477
468,19	22,605
468,39	27,938
468,59	22,128
468,79	26,896
468,99	27,970
469,19	23,659
469,40	25,381
469,60	20,889
469,80	22,041
470,00	22,391
470,20	25,918
470,41	22,736
470,61	26,530
470,81	28,382
471,01	26,767
471,21	28,410
471,41	29,879
471,62	25,672
471,82	25,193
472,02	23,056
472,22	23,607
472,42	23,266
472,62	28,025
472,83	21,456
473,03	29,167
473,23	25,809
473,43	29,669
473,63	28,432
473,83	24,701
474,03	25,071
474,24	27,942
474,44	25,348
474,64	25,119
474,84	22,113
475,04	23,738
475,24	28,732
475,45	26,689
475,65	25,846
475,85	31,194
476,05	19,235
476,25	24,394
476,45	27,678
476,65	27,880
476,85	24,056
477,06	24,637
477,26	23,367
477,46	25,115
477,66	25,983
477,86	26,536
478,06	25,574
478,26	33,302
478,46	23,425
478,67	29,256
478,87	24,323
479,07	24,639
479,27	28,230
479,47	24,884
479,67	20,537
479,87	23,649
480,07	30,752
480,28	27,406
480,48	23,729
480,68	27,757
480,88	32,920
481,08	30,843
481,28	26,672
481,48	24,426
481,68	24,309
481,88	22,525
482,08	25,292
482,29	27,056
482,49	22,755
482,69	25,723
482,89	24,264
483,09	31,243
483,29	24,545
483,49	17,571
483,69	26,770
483,89	24,472
484,09	21,230
484,29	23,229
484,50	25,989
484,70	27,598
484,90	22,949
485,10	25,838
485,30	26,642
485,50	29,186
485,70	26,924
485,90	21,726
486,10	20,421
486,30	20,967
486,50	23,679
486,70	22,101
486,90	24,447
487,10	27,425
487,30	25,819
487,51	23,587
487,71	21,601
487,91	25,404
488,11	28,141
488,31	22,173
488,51	25,432
488,71	21,641
488,91	23,916
489,11	24,044
489,31	24,009
489,51	27,004
489,71	24,838
489,91	23,887
490,11	26,667
490,31	27,386
490,51	26,972
490,71	28,290
490,91	23,952
491,11	26,613
491,31	28,166
491,51	26,542
491,72	24,062
491,92	24,892
492,12	31,619
492,32	26,250
492,52	27,764
492,72	21,503
492,92	25,266
493,12	26,637
493,32	23,412
493,52	24,079
493,72	24,730
493,92	26,086
494,12	26,022
494,32	27,094
494,52	24,902
494,72	26,202
494,92	24,705
495,12	28,899
495,32	31,473
495,52	27,699
495,72	25,964
495,92	26,058
496,12	29,976
496,32	26,795
496,52	25,402
496,72	28,514
496,92	27,089
497,12	29,669
497,32	27,268
497,52	27,853
497,72	27,115
497,92	26,442
498,12	25,792
498,32	27,285
498,52	25,087
498,72	24,280
498,92	26,745
499,12	27,656
499,32	24,827
499,52	28,893
499,72	26,211
499,92	32,000
500,12	27,399
500,32	27,411
500,52	27,439
500,72	30,770
500,91	31,259
501,11	27,658
501,31	27,905
501,51	29,467
501,71	29,726
501,91	27,617
502,11	23,932
502,31	28,554
502,51	29,226
502,71	30,379
502,91	24,615
503,11	28,182
503,31	29,061
503,51	24,145
503,71	27,382
503,91	30,156
504,11	26,898
504,31	29,180
504,51	25,470
504,71	33,777
504,91	24,518
505,10	30,209
505,30	27,346
505,50	28,872
505,70	27,350
505,90	30,267
506,10	24,861
506,30	31,013
506,50	29,495
506,70	29,847
506,90	29,326
507,10	26,866
507,30	26,925
507,50	28,486
507,70	30,103
507,89	31,170
508,09	28,732
508,29	26,849
508,49	25,307
508,69	27,719
508,89	27,038
509,09	27,169
509,29	28,005
509,49	30,900
509,69	32,320
509,89	30,936
510,09	30,461
510,28	28,378
510,48	27,492
510,68	27,821
510,88	28,179
511,08	30,833
511,28	28,062
511,48	28,698
511,68	23,404
511,88	33,616
512,07	26,309
512,27	27,253
512,47	27,139
512,67	26,273
512,87	24,441
513,07	27,929
513,27	25,405
513,47	27,467
513,67	25,432
513,86	28,045
514,06	28,937
514,26	31,064
514,46	30,777
514,66	26,752
514,86	27,827
515,06	32,898
515,26	30,699
515,45	27,923
515,65	26,935
515,85	29,495
516,05	26,089
516,25	26,478
516,45	28,876
516,65	25,556
516,84	28,106
517,04	30,772
517,24	29,832
517,44	29,244
517,64	29,593
517,84	33,398
518,04	28,714
518,23	30,927
518,43	33,325
518,63	28,834
518,83	26,904
519,03	28,070
519,23	27,614
519,42	29,507
519,62	27,354
519,82	27,406
520,02	27,726
520,22	31,104
520,42	28,034
520,61	31,660
520,81	29,472
521,01	31,151
521,21	26,633
521,41	27,467
521,61	31,701
521,80	27,806
522,00	27,930
522,20	34,842
522,40	29,739
522,60	27,331
522,79	26,052
522,99	31,522
523,19	25,436
523,39	27,265
523,59	29,854
523,78	30,523
523,98	28,331
524,18	30,074
524,38	24,931
524,58	27,193
524,77	30,248
524,97	30,061
525,17	28,167
525,37	29,287
525,57	33,109
525,76	29,793
525,96	31,364
526,16	25,198
526,36	29,987
526,56	27,775
526,75	30,470
526,95	30,575
527,15	28,900
527,35	32,055
527,55	25,073
527,74	27,434
527,94	28,426
528,14	27,355
528,34	27,975
528,53	28,103
528,73	33,022
528,93	31,201
529,13	27,222
529,32	29,478
529,52	30,494
529,72	29,719
529,92	28,069
530,12	28,529
530,31	30,069
530,51	31,173
530,71	27,672
530,91	34,949
531,10	24,712
531,30	30,698
531,50	27,189
531,70	30,171
531,89	32,194
532,09	25,985
532,29	28,290
532,49	28,688
532,68	30,378
532,88	28,085
533,08	27,865
533,28	30,388
533,47	30,933
533,67	28,965
533,87	29,227
534,06	37,404
534,26	27,358
534,46	27,495
534,66	29,582
534,85	30,148
535,05	25,661
535,25	26,082
535,45	26,957
535,64	31,931
535,84	31,289
536,04	26,197
536,23	30,290
536,43	32,440
536,63	28,583
536,83	30,340
537,02	27,720
537,22	27,419
537,42	28,939
537,61	29,661
537,81	29,362
538,01	29,644
538,20	28,834
538,40	25,443
538,60	26,296
538,80	25,174
538,99	28,192
539,19	27,429
539,39	26,734
539,58	27,724
539,78	25,356
539,98	23,661
540,17	23,229
540,37	27,980
540,57	22,630
540,76	23,823
540,96	18,322
541,16	23,713
541,36	21,406
541,55	20,596
541,75	20,173
541,95	22,808
542,14	17,383
542,34	16,614
542,54	17,496
542,73	21,582
542,93	17,890
543,13	17,992
543,32	18,149
543,52	20,446
543,72	16,686
543,91	18,927
544,11	17,462
544,31	14,430
544,50	16,898
544,70	19,426
544,89	19,195
545,09	20,915
545,29	20,899
545,48	21,306
545,68	16,495
545,88	23,312
546,07	19,421
546,27	21,866
546,47	22,720
546,66	23,636
546,86	22,879
547,06	22,721
547,25	22,352
547,45	24,804
547,64	24,326
547,84	27,310
548,04	27,195
548,23	30,422
548,43	28,696
548,63	27,301
548,82	25,896
549,02	26,671
549,21	25,464
549,41	27,187
549,61	27,317
549,80	27,448
550,00	27,208
550,20	25,146
550,39	28,606
550,59	28,303
550,78	28,772
550,98	27,099
551,18	28,664
551,37	28,127
551,57	26,490
551,76	30,403
551,96	27,775
552,16	28,106
552,35	28,406
552,55	26,019
552,74	27,121
552,94	30,490
553,14	24,986
553,33	28,977
553,53	28,674
553,72	26,149
553,92	31,711
554,12	27,724
554,31	31,074
554,51	28,529
554,70	25,919
554,90	27,947
555,09	33,139
555,29	27,524
555,49	31,503
555,68	32,868
555,88	28,018
556,07	26,947
556,27	34,907
556,46	29,482
556,66	27,885
556,86	34,245
557,05	30,747
557,25	28,150
557,44	30,079
557,64	28,376
557,83	30,014
558,03	30,081
558,22	27,356
558,42	26,485
558,62	29,427
558,81	30,894
559,01	30,721
559,20	31,970
559,40	29,473
559,59	27,221
559,79	27,674
559,98	30,052
560,18	31,495
560,37	30,955
560,57	29,436
560,76	27,023
560,96	25,674
561,16	28,273
561,35	28,390
561,55	29,682
561,74	30,512
561,94	31,385
562,13	28,861
562,33	30,347
562,52	30,013
562,72	28,264
562,91	29,483
563,11	29,619
563,30	29,709
563,50	30,141
563,69	27,085
563,89	28,464
564,08	29,360
564,28	27,096
564,47	30,713
564,67	29,555
564,86	29,641
565,06	26,793
565,25	28,509
565,45	27,284
565,64	34,011
565,84	30,224
566,03	25,716
566,23	30,717
566,42	30,530
566,62	28,757
566,81	28,396
567,01	26,567
567,20	28,626
567,40	28,670
567,59	26,836
567,79	33,850
567,98	33,022
568,18	29,886
568,37	31,376
568,57	29,658
568,76	28,528
568,96	29,993
569,15	28,202
569,35	29,385
569,54	32,395
569,73	29,785
569,93	28,941
570,12	27,654
570,32	31,131
570,51	29,715
570,71	31,939
570,90	30,587
571,10	28,658
571,29	28,059
571,49	28,039
571,68	31,381
571,87	30,820
572,07	29,795
572,26	24,520
572,46	29,157
572,65	29,528
572,85	28,287
573,04	29,059
573,24	28,737
573,43	32,109
573,62	30,509
573,82	30,060
574,01	28,883
574,21	27,438
574,40	28,401
574,60	26,129
574,79	32,346
574,98	28,463
575,18	28,427
575,37	26,726
575,57	28,882
575,76	30,582
575,96	29,044
576,15	30,085
576,34	28,872
576,54	29,305
576,73	28,921
576,93	29,087
577,12	28,994
577,31	27,883
577,51	26,509
577,70	28,500
577,90	28,307
578,09	29,350
578,28	28,067
578,48	28,859
578,67	28,504
578,87	28,543
579,06	27,537
579,25	28,863
579,45	30,322
579,64	27,201
579,84	26,862
580,03	28,654
580,22	31,063
580,42	28,401
580,61	29,513
580,81	28,487
581,00	28,309
581,19	29,904
581,39	27,355
581,58	28,079
581,77	27,303
581,97	30,563
582,16	27,861
582,35	27,491
582,55	28,218
582,74	30,564
582,94	29,996
583,13	29,112
583,32	27,901
583,52	29,036
583,71	28,818
583,90	28,420
584,10	30,954
584,29	28,926
584,48	26,053
584,68	26,469
584,87	30,185
585,06	28,960
585,26	26,762
585,45	28,016
585,65	30,196
585,84	28,981
586,03	27,257
586,23	26,750
586,42	27,277
586,61	33,099
586,81	29,635
587,00	27,653
587,19	28,231
587,39	29,745
587,58	28,464
587,77	28,263
587,97	26,803
588,16	29,138
588,35	27,848
588,54	29,657
588,74	28,236
588,93	32,192
589,12	29,204
589,32	27,181
589,51	27,399
589,70	27,390
589,90	25,569
590,09	26,492
590,28	31,659
590,48	25,845
590,67	30,169
590,86	28,246
591,06	28,183
591,25	30,381
591,44	28,899
591,63	29,938
591,83	29,467
592,02	29,364
592,21	28,153
592,41	30,119
592,60	30,811
592,79	29,486
592,98	30,924
593,18	27,801
593,37	28,293
593,56	29,618
593,76	29,948
593,95	28,592
594,14	28,836
594,33	31,895
594,53	29,182
594,72	27,100
594,91	29,632
595,10	28,119
595,30	29,018
595,49	28,484
595,68	31,072
595,88	32,377
596,07	30,072
596,26	31,090
596,45	29,511
596,65	25,874
596,84	28,917
597,03	31,110
597,22	28,344
597,42	31,113
597,61	28,075
597,80	29,347
597,99	28,457
598,19	30,363
598,38	30,538
598,57	28,713
598,76	30,669
598,95	28,790
599,15	30,757
599,34	27,307
599,53	27,732
599,72	28,647
599,92	30,432
600,11	29,639
600,30	30,463
600,49	32,490
600,69	28,800
600,88	30,226
601,07	29,194
601,26	26,948
601,45	28,755
601,65	28,586
601,84	30,664
602,03	27,786
602,22	29,652
602,42	30,852
602,61	28,471
602,80	30,124
602,99	28,594
603,18	28,211
603,38	32,324
603,57	28,066
603,76	26,362
603,95	27,466
604,14	30,521
604,34	28,233
604,53	28,469
604,72	30,545
604,91	29,585
605,10	29,828
605,29	31,609
605,49	27,241
605,68	30,208
605,87	33,489
606,06	28,809
606,25	28,715
606,45	29,926
606,64	28,269
606,83	31,654
607,02	28,358
607,21	31,114
607,40	29,809
607,60	26,980
607,79	27,173
607,98	27,242
608,17	28,453
608,36	27,245
608,55	28,300
608,75	29,525
608,94	27,234
609,13	24,329
609,32	24,327
609,51	26,501
609,70	25,951
609,89	24,089
610,09	23,356
610,28	24,809
610,47	23,997
610,66	23,525
610,85	21,539
611,04	25,719
611,23	22,929
611,43	22,048
611,62	24,081
611,81	22,451
612,00	24,052
612,19	22,583
612,38	23,883
612,57	25,178
612,77	24,971
612,96	23,372
613,15	25,213
613,34	27,251
613,53	25,791
613,72	27,265
613,91	25,071
614,10	26,348
614,29	29,337
614,49	25,974
614,68	25,756
614,87	26,801
615,06	30,547
615,25	27,261
615,44	30,552
615,63	27,688
615,82	27,637
616,01	29,648
616,21	26,864
616,40	29,876
616,59	30,848
616,78	27,907
616,97	28,001
617,16	27,516
617,35	29,261
617,54	27,978
617,73	29,476
617,92	27,838
618,11	30,649
618,31	28,775
618,50	29,811
618,69	27,356
618,88	28,383
619,07	24,473
619,26	26,734
619,45	27,738
619,64	25,450
619,83	27,470
620,02	26,762
620,21	30,403
620,40	28,858
620,59	28,796
620,78	27,845
620,97	27,466
621,17	31,218
621,36	28,606
621,55	27,100
621,74	29,646
621,93	30,729
622,12	28,832
622,31	27,161
622,50	28,707
622,69	31,074
622,88	29,355
623,07	31,184
623,26	29,347
623,45	30,870
623,64	29,753
623,83	28,781
624,02	29,596
624,21	29,265
624,40	28,797
624,59	26,054
624,78	28,910
624,97	32,546
625,16	26,835
625,35	27,141
625,54	26,953
625,73	27,327
625,92	30,229
626,12	29,881
626,31	30,243
626,50	29,207
626,69	29,418
626,88	28,726
627,07	29,233
627,26	28,414
627,45	29,570
627,64	27,915
627,83	30,112
628,02	27,922
628,21	29,015
628,40	28,369
628,59	31,118
628,78	26,802
628,97	28,348
629,16	28,189
629,35	29,561
629,54	30,517
629,73	30,413
629,92	28,011
630,10	29,616
630,29	28,543
630,48	27,075
630,67	26,915
630,86	28,774
631,05	27,100
631,24	30,470
631,43	27,005
631,62	28,949
631,81	27,190
632,00	29,345
632,19	26,680
632,38	29,645
632,57	31,038
632,76	27,684
632,95	28,500
633,14	31,853
633,33	30,055
633,52	27,977
633,71	29,678
633,90	27,461
634,09	29,205
634,28	31,007
634,47	28,388
634,66	29,893
634,85	28,455
635,04	31,587
635,22	28,266
635,41	28,490
635,60	32,690
635,79	31,572
635,98	28,750
636,17	29,957
636,36	26,736
636,55	28,043
636,74	28,987
636,93	28,830
637,12	28,715
637,31	28,428
637,50	28,580
637,69	30,075
637,87	30,959
638,06	27,707
638,25	27,676
638,44	28,472
638,63	27,389
638,82	28,338
639,01	29,056
639,20	29,342
639,39	30,826
639,58	30,058
639,77	29,052
639,95	28,213
640,14	31,315
640,33	29,086
640,52	30,343
640,71	32,065
640,90	28,625
641,09	31,079
641,28	27,368
641,47	30,726
641,66	30,307
641,84	32,102
642,03	26,053
642,22	29,864
642,41	33,549
642,60	29,495
642,79	29,715
642,98	29,269
643,17	29,510
643,35	27,320
643,54	28,534
643,73	27,194
643,92	29,114
644,11	28,886
644,30	28,228
644,49	30,386
644,67	28,641
644,86	28,840
645,05	29,355
645,24	28,181
645,43	27,500
645,62	30,652
645,81	27,093
645,99	28,201
646,18	31,902
646,37	29,301
646,56	29,331
646,75	30,637
646,94	31,512
647,13	27,289
647,31	28,223
647,50	28,086
647,69	30,773
647,88	29,846
648,07	30,673
648,26	33,006
648,44	28,183
648,63	30,475
648,82	27,967
649,01	30,955
649,20	26,232
649,38	29,640
649,57	29,436
649,76	27,883
649,95	29,946
650,14	28,400
650,33	29,593
650,51	29,674
650,70	28,736
650,89	29,829
651,08	30,304
651,27	30,755
651,45	28,610
651,64	29,271
651,83	29,079
652,02	27,481
652,21	29,850
652,39	31,027
652,58	30,127
652,77	31,278
652,96	29,229
653,15	30,077
653,33	29,527
653,52	29,353
653,71	30,043
653,90	30,345
654,09	29,031
654,27	28,871
654,46	31,106
654,65	30,235
654,84	29,956
655,02	29,797
655,21	28,594
655,40	30,297
655,59	30,262
655,77	30,571
655,96	29,642
656,15	31,198
656,34	30,937
656,53	29,985
656,71	30,996
656,90	31,570
657,09	31,193
657,28	32,329
657,46	29,864
657,65	29,324
657,84	29,481
658,03	28,938
658,21	30,792
658,40	28,369
658,59	29,013
658,78	28,711
658,96	28,424
659,15	30,895
659,34	29,215
659,52	29,521
659,71	29,903
659,90	29,703
660,09	29,695
660,27	30,410
660,46	33,325
660,65	29,328
660,84	27,927
661,02	30,289
661,21	31,492
661,40	30,986
661,58	30,395
661,77	29,627
661,96	27,515
662,15	29,312
662,33	29,964
662,52	30,080
662,71	27,696
662,89	28,753
663,08	29,679
663,27	30,845
663,45	28,632
663,64	29,478
663,83	27,935
664,02	27,456
664,20	31,282
664,39	30,046
664,58	30,131
664,76	28,656
664,95	29,050
665,14	30,302
665,32	27,469
665,51	29,897
665,70	30,361
665,88	31,671
666,07	29,571
666,26	32,279
666,44	31,763
666,63	28,061
666,82	28,332
667,00	28,190
667,19	28,513
667,38	29,396
667,56	28,668
667,75	30,310
667,94	29,049
668,12	28,428
668,31	31,296
668,50	29,965
668,68	31,199
668,87	27,637
669,06	29,835
669,24	30,740
669,43	28,814
669,62	30,358
669,80	27,626
669,99	28,702
670,18	28,376
670,36	27,283
670,55	31,528
670,74	28,051
670,92	26,927
671,11	31,553
671,29	26,609
671,48	28,038
671,67	30,088
671,85	29,655
672,04	28,957
672,23	29,116
672,41	28,212
672,60	30,078
672,78	29,504
672,97	29,571
673,16	30,031
673,34	30,802
673,53	27,859
673,71	29,511
673,90	30,609
674,09	30,247
674,27	29,920
674,46	30,151
674,64	29,138
674,83	28,700
675,02	28,260
675,20	28,305
675,39	27,549
675,57	29,905
675,76	29,036
675,95	33,694
676,13	28,851
676,32	29,409
676,50	29,386
676,69	27,187
676,88	29,713
677,06	27,387
677,25	29,797
677,43	31,326
677,62	32,233
677,80	30,344
677,99	30,031
678,18	30,925
678,36	31,828
678,55	28,333
678,73	27,978
678,92	29,129
679,10	29,581
679,29	29,339
679,48	28,162
679,66	29,986
679,85	28,947
680,03	29,997
680,22	28,944
680,40	29,065
680,59	29,813
680,77	28,926
680,96	29,714
681,15	29,507
681,33	30,615
681,52	29,819
681,70	29,433
681,89	32,481
682,07	29,057
682,26	28,403
682,44	28,938
682,63	30,345
682,81	31,517
683,00	30,020
683,18	27,498
683,37	30,225
683,55	28,959
683,74	30,893
683,92	34,864
684,11	30,309
684,29	30,295
684,48	28,262
684,67	30,159
684,85	29,311
685,04	30,413
685,22	28,974
685,41	29,981
685,59	29,487
685,78	28,238
685,96	28,306
686,15	29,197
686,33	28,779
686,52	29,111
686,70	28,632
686,89	29,562
687,07	29,519
687,26	29,462
687,44	30,002
687,62	29,697
687,81	30,097
687,99	30,704
688,18	30,255
688,36	30,444
688,55	32,270
688,73	29,724
688,92	28,583
689,10	30,681
689,29	31,779
689,47	31,261
689,66	28,623
689,84	28,538
690,03	33,612
690,21	28,963
690,40	28,513
690,58	29,726
690,76	28,102
690,95	30,179
691,13	28,478
691,32	28,818
691,50	29,551
691,69	31,146
691,87	29,464
692,06	29,503
692,24	28,994
692,43	30,610
692,61	29,928
692,79	28,709
692,98	29,062
693,16	31,509
693,35	28,181
693,53	30,805
693,72	30,344
693,90	32,898
694,08	29,492
694,27	29,876
694,45	30,301
694,64	31,778
694,82	28,732
695,01	29,917
695,19	27,861
695,37	31,162
695,56	29,393
695,74	30,688
695,93	30,658
696,11	29,330
696,29	29,479
696,48	30,773
696,66	30,268
696,85	28,012
697,03	28,479
697,21	29,909
697,40	32,870
697,58	30,461
697,77	31,084
697,95	29,685
698,13	29,281
698,32	29,428
698,50	28,297
698,69	28,083
698,87	30,995
699,05	32,098
699,24	29,681
699,42	29,867
699,60	27,834
699,79	29,278
699,97	27,920
700,16	28,300
700,34	34,001
700,52	30,350
700,71	29,736
700,89	27,793
701,07	27,857
701,26	28,922
701,44	28,975
701,63	29,886
701,81	30,633
701,99	30,328
702,18	30,227
702,36	30,282
702,54	31,624
702,73	29,491
702,91	27,978
703,09	28,142
703,28	27,814
703,46	29,830
703,64	30,915
703,83	31,133
704,01	30,487
704,19	29,449
704,38	28,065
704,56	29,734
704,74	30,419
704,93	28,584
705,11	28,468
705,29	28,123
705,48	32,474
705,66	29,860
705,84	29,472
706,03	27,901
706,21	27,776
706,39	29,841
706,58	28,481
706,76	29,899
706,94	30,480
707,12	30,140
707,31	29,434
707,49	29,831
707,67	28,825
707,86	31,902
708,04	30,934
708,22	29,252
708,41	30,474
708,59	28,877
708,77	30,979
708,95	30,565
709,14	32,719
709,32	31,019
709,50	27,661
709,69	30,421
709,87	28,909
710,05	27,556
710,23	27,945
710,42	28,333
710,60	30,285
710,78	32,743
710,97	30,088
711,15	29,036
711,33	29,821
711,51	29,494
711,70	29,283
711,88	29,152
712,06	31,175
712,24	30,721
712,43	30,293
712,61	28,488
712,79	28,812
712,97	28,853
713,16	30,426
713,34	27,231
713,52	30,112
713,70	29,034
713,89	29,002
714,07	28,683
714,25	30,446
714,43	31,100
714,62	28,402
714,80	29,120
714,98	28,207
715,16	29,455
715,35	28,938
715,53	30,188
715,71	32,306
715,89	30,955
716,07	30,675
716,26	30,723
716,44	31,213
716,62	30,999
716,80	29,232
716,99	30,436
717,17	32,684
717,35	30,557
717,53	29,075
717,71	30,079
717,90	31,969
718,08	32,755
718,26	28,582
718,44	30,812
718,62	32,583
718,81	29,895
718,99	28,601
719,17	27,618
719,35	30,216
719,53	29,264
719,72	26,363
719,90	29,613
720,08	28,504
720,26	32,081
720,44	28,666
720,62	28,884
720,81	32,505
720,99	32,674
721,17	29,637
721,35	30,937
721,53	28,484
721,72	33,249
721,90	29,478
722,08	28,512
722,26	29,900
722,44	30,951
722,62	27,566
722,81	29,751
722,99	28,794
723,17	30,361
723,35	30,355
723,53	29,654
723,71	31,764
723,89	34,084
724,08	30,586
724,26	29,408
724,44	30,487
724,62	31,187
724,80	27,110
724,98	29,817
725,16	32,528
725,35	29,449
725,53	29,874
725,71	30,146
725,89	29,705
726,07	35,385
726,25	33,202
726,43	27,788
726,61	31,353
726,80	29,833
726,98	30,446
727,16	27,041
727,34	30,762
727,52	29,509
727,70	30,082
727,88	30,522
728,06	26,649
728,25	28,313
728,43	29,199
728,61	28,486
728,79	30,023
728,97	32,413
729,15	30,055
729,33	31,534
729,51	31,261
729,69	29,713
729,87	30,393
730,06	31,723
730,24	31,894
730,42	32,680
730,60	29,730
730,78	31,935
730,96	30,058
731,14	31,828
731,32	31,329
731,50	28,462
731,68	28,982
731,86	32,047
732,04	30,515
732,22	30,009
732,41	37,731
732,59	28,424
732,77	30,894
732,95	30,119
733,13	32,683
733,31	32,026
733,49	26,957
733,67	30,823
733,85	31,531
734,03	29,671
734,21	27,723
734,39	31,153
734,57	29,988
734,75	31,095
734,93	28,159
735,11	30,886
735,29	28,268
735,47	30,924
735,65	29,029
735,84	28,092
736,02	28,777
736,20	33,706
736,38	29,076
736,56	31,762
736,74	30,748
736,92	29,251
737,10	28,590
737,28	31,441
737,46	29,806
737,64	29,650
737,82	28,812
738,00	30,747
738,18	31,257
738,36	33,361
738,54	30,923
738,72	29,556
738,90	30,990
739,08	31,222
739,26	29,110
739,44	31,432
739,62	34,316
739,80	31,049
739,98	30,772
740,16	30,796
740,34	30,804
740,52	32,646
740,70	29,591
740,88	29,454
741,06	32,063
741,24	31,083
741,42	29,853
741,60	29,836
741,78	29,640
741,96	31,937
742,14	30,709
742,32	30,825
742,50	27,662
742,68	31,093
742,86	30,931
743,04	27,590
743,21	32,813
743,39	29,942
743,57	31,542
743,75	31,785
743,93	28,690
744,11	26,871
744,29	31,104
744,47	29,598
744,65	30,469
744,83	30,041
745,01	29,621
745,19	28,751
745,37	34,841
745,55	31,730
745,73	32,002
745,91	28,356
746,09	29,489
746,27	29,285
746,45	29,954
746,62	30,452
746,80	28,851
746,98	31,168
747,16	28,127
747,34	28,617
747,52	29,676
747,70	32,201
747,88	32,086
748,06	31,309
748,24	31,052
748,42	34,077
748,60	29,410
748,78	26,670
748,95	33,002
749,13	34,405
749,31	30,572
749,49	30,608
749,67	31,117
749,85	31,740
750,03	29,548
750,21	31,093
750,39	31,063
750,57	28,604
750,74	32,399
750,92	29,232
751,10	31,347
751,28	29,234
751,46	31,173
751,64	30,806
751,82	33,332
752,00	32,642
752,17	31,239
752,35	32,466
752,53	31,643
752,71	30,554
752,89	30,329
753,07	30,407
753,25	31,356
753,43	28,171
753,60	32,454
753,78	31,235
753,96	31,219
754,14	32,231
754,32	33,721
754,50	31,887
754,68	32,466
754,85	29,572
755,03	30,824
755,21	32,223
755,39	33,378
755,57	31,355
755,75	32,800
755,92	30,579
756,10	31,435
756,28	29,552
756,46	30,554
756,64	30,965
756,82	32,027
756,99	29,284
757,17	28,750
757,35	30,290
757,53	35,230
757,71	34,663
757,89	28,990
758,06	31,874
758,24	32,692
758,42	32,130
758,60	28,118
758,78	31,037
758,95	32,215
759,13	33,153
759,31	31,266
759,49	29,503
759,67	30,824
759,84	29,196
760,02	31,581
760,20	29,650
760,38	32,707
760,56	28,373
760,73	29,933
760,91	28,270
761,09	32,820
761,27	29,956
761,45	29,823
761,62	27,088
761,80	29,714
761,98	30,897
762,16	33,810
762,33	28,118
762,51	30,934
762,69	29,194
762,87	31,727
763,05	32,117
763,22	30,522
763,40	30,595
763,58	29,551
763,76	29,871
763,93	33,088
764,11	33,524
764,29	32,920
764,47	32,278
764,64	33,255
764,82	33,437
765,00	30,014
765,18	28,958
765,35	30,954
765,53	29,704
765,71	32,300
765,89	31,044
766,06	29,975
766,24	32,196
766,42	32,327
766,60	27,572
766,77	29,518
766,95	31,380
767,13	30,051
767,30	30,567
767,48	28,944
767,66	29,535
767,84	28,314
768,01	31,229
768,19	31,450
768,37	30,517
768,54	29,765
768,72	31,814
768,90	29,881
769,08	31,526
769,25	30,789
769,43	30,728
769,61	28,027
769,78	32,125
769,96	30,272
770,14	32,283
770,31	34,161
770,49	36,201
770,67	31,911
770,85	30,326
771,02	31,741
771,20	31,040
771,38	32,437
771,55	29,839
771,73	28,671
771,91	31,526
772,08	31,797
772,26	31,362
772,44	33,015
772,61	31,918
772,79	30,780
772,97	29,510
773,14	28,585
773,32	33,674
773,50	29,206
773,67	32,608
773,85	32,264
774,03	34,862
774,20	31,540
774,38	32,203
774,56	31,542
774,73	28,272
774,91	29,821
775,09	28,858
775,26	31,833
775,44	32,801
775,61	31,756
775,79	30,854
775,97	33,106
776,14	30,718
776,32	31,940
776,50	32,287
776,67	31,130
776,85	31,981
777,03	28,784
777,20	31,913
777,38	34,362
777,55	32,367
777,73	30,107
777,91	29,433
778,08	30,522
778,26	29,194
778,43	31,016
778,61	29,355
778,79	31,209
778,96	34,568
779,14	30,484
779,32	29,996
779,49	28,173
779,67	35,398
779,84	33,270
780,02	31,663
780,20	32,367
780,37	32,807
780,55	27,701
780,72	30,114
780,90	31,598
781,07	32,475
781,25	34,672
781,43	31,251
781,60	31,053
781,78	32,254
781,95	31,598
782,13	31,297
782,30	33,089
782,48	32,910
782,66	29,566
782,83	30,744
783,01	39,971
783,18	32,853
783,36	34,382
783,53	30,706
783,71	27,996
783,89	31,686
784,06	31,915
784,24	31,439
784,41	30,950
784,59	28,589
784,76	35,935
784,94	29,938
785,11	34,274
785,29	32,873
785,46	31,785
785,64	30,458
785,82	34,155
785,99	35,230
786,17	35,176
786,34	28,415
786,52	36,233
786,69	35,491
786,87	32,352
787,04	31,034
787,22	31,877
787,39	32,885
787,57	35,362
787,74	30,399
787,92	38,938
788,09	33,639
788,27	33,160
788,44	32,504
788,62	36,192
788,79	28,181
788,97	30,585
789,14	33,042
789,32	30,835
789,49	30,279
789,67	33,138
789,84	29,625
790,02	33,717
790,19	29,753
790,37	34,896
790,54	30,485
790,72	35,975
790,89	34,851
791,07	35,956
791,24	29,656
791,42	33,201
791,59	33,632
791,77	31,212
791,94	32,038
792,12	31,941
792,29	34,414
792,47	35,317
792,64	32,170
792,81	33,848
792,99	30,701
793,16	30,632
793,34	30,894
793,51	33,794
793,69	33,580
793,86	31,099
794,04	32,503
794,21	34,765
794,39	28,623
794,56	31,677
794,73	34,621
794,91	35,602
795,08	32,536
795,26	30,886
795,43	30,109
795,61	38,712
795,78	30,704
795,95	35,122
796,13	35,910
796,30	33,251
796,48	30,440
796,65	28,205
796,83	35,119
797,00	34,425
797,17	30,249
797,35	30,346
797,52	32,561
797,70	33,548
797,87	33,917
798,04	35,493
798,22	28,763
798,39	32,684
798,57	31,463
798,74	33,337
798,91	28,194
799,09	32,511
799,26	34,369
799,44	34,611
799,61	28,153
799,78	31,585
799,96	35,551
800,13	30,076
800,31	34,577
800,48	35,115
800,65	38,299
800,83	35,098
801,00	33,808
801,17	32,101
801,35	36,266
801,52	34,555
801,70	33,102
801,87	32,759
802,04	35,762
802,22	26,704
802,39	31,897
802,56	37,417
802,74	36,644
802,91	31,918
803,08	30,272
803,26	34,713
803,43	37,632
803,61	28,354
803,78	32,473
803,95	36,527
804,13	34,371
804,30	29,443
804,47	33,800
804,65	34,225
804,82	34,337
804,99	37,132
805,17	32,467
805,34	40,864
805,51	38,757
805,69	30,107
805,86	37,224
806,03	40,864
806,21	35,399
806,38	37,522
806,55	30,495
806,72	37,318
806,90	40,738
807,07	33,353
807,24	33,141
807,42	28,894
807,59	34,763
807,76	29,654
807,94	35,032
808,11	41,009
808,28	38,404
808,45	32,837
808,63	29,964
808,80	37,536
808,97	32,583
809,15	34,033
809,32	33,547
809,49	34,923
809,67	37,904
809,84	38,301
810,01	36,674
810,18	44,458
810,36	38,627
810,53	34,621
810,70	37,324
810,87	32,424
811,05	37,372
811,22	32,830
811,39	31,457
811,57	38,169
811,74	32,818
811,91	38,076
812,08	30,967
812,26	32,377
812,43	30,736
812,60	37,815
812,77	33,106
812,95	36,898
813,12	35,444
813,29	32,702
813,46	34,525
813,64	37,933
813,81	36,137
813,98	35,660
814,15	36,737
814,32	38,213
814,50	37,446
814,67	35,183
814,84	41,755
815,01	32,005
815,19	35,731
815,36	33,847
815,53	33,349
815,70	34,900
815,87	40,173
816,05	35,514
816,22	38,502
816,39	41,325
816,56	40,710
816,74	41,549
816,91	40,058
817,08	43,091
817,25	41,136
817,42	38,849
817,60	37,490
817,77	41,568
817,94	30,251
818,11	32,435
818,28	31,477
818,45	37,299
818,63	34,391
818,80	39,058
818,97	31,727
819,14	35,717
819,31	41,085
819,49	38,588
819,66	30,851
819,83	41,590
820,00	41,569
820,17	32,106
820,34	36,615
820,52	38,931
820,69	38,623
820,86	37,306
821,03	36,783
821,20	39,894
821,37	41,805
821,55	38,446
821,72	31,453
821,89	37,622
822,06	40,436
822,23	32,957
822,40	33,525
822,57	41,303
822,75	39,674
822,92	26,743
823,09	41,358
823,26	44,393
823,43	43,605
823,60	34,460
823,77	32,839
823,94	40,968
824,12	42,482
824,29	34,503
824,46	41,394
824,63	53,888
824,80	44,454
824,97	35,362
825,14	38,943
825,31	38,374
825,49	38,042
825,66	25,404
825,83	33,192
826,00	35,090
826,17	46,273
826,34	40,284
826,51	36,493
826,68	34,492
826,85	38,553
827,02	33,353
827,20	37,585
827,37	33,193
827,54	37,694
827,71	36,646
827,88	37,592
828,05	39,724
828,22	41,683
828,39	37,756
828,56	38,057
828,73	36,927
828,90	39,087
829,07	35,864
829,25	33,902
829,42	35,119
829,59	32,645
829,76	33,739
829,93	32,791
830,10	39,442
830,27	35,564
830,44	32,848
830,61	26,904
830,78	45,704
830,95	40,545
831,12	38,612
831,29	34,986
831,46	34,305
831,63	30,181
831,80	37,713
831,97	33,809
832,14	44,948
832,31	45,431
832,48	36,494
832,65	42,370
832,83	34,216
833,00	40,384
833,17	36,954
833,34	40,272
833,51	42,123
833,68	45,781
833,85	37,397
834,02	34,502
834,19	43,639
834,36	40,265
834,53	34,006
834,70	38,949
834,87	51,944
835,04	38,505
835,21	42,909
835,38	42,102
835,55	34,972
835,72	57,264
835,89	35,949
836,06	33,342
836,23	48,388
836,40	29,212
836,57	36,536
836,74	39,566
836,91	35,317
837,08	51,732
837,25	36,845
837,42	37,890
837,59	27,915
837,76	43,355
837,93	37,156
838,09	35,941
838,26	38,196
838,43	47,505
838,60	43,474
838,77	37,318
838,94	40,088
839,11	54,076
839,28	44,207
839,45	31,798
839,62	41,116
839,79	34,838
839,96	38,144
840,13	44,391
840,30	32,712
840,47	39,458
840,64	50,465
840,81	35,533
840,98	38,999
841,15	48,729
841,32	36,904
841,48	42,156
841,65	41,038
841,82	35,791
841,99	38,977
842,16	41,052
842,33	36,767
842,50	43,047
842,67	30,854
842,84	35,492
843,01	50,453
843,18	35,067
843,35	39,718
843,52	33,066
843,68	48,147
843,85	39,926
844,02	33,082
844,19	40,144
844,36	48,254
844,53	39,982
844,70	27,689
844,87	51,459
845,04	47,490
845,21	28,536
845,37	45,849
845,54	37,832
845,71	39,389
845,88	58,269
846,05	38,708
846,22	26,439
846,39	42,725
846,56	44,489
846,72	16,682
846,89	39,065
847,06	54,231
847,23	46,677
847,40	29,506
847,57	39,729
847,74	36,315
847,90	53,707
848,07	45,942
848,24	45,441
848,41	59,050
848,58	61,066
848,75	46,415
848,92	32,833
849,08	36,605
849,25	35,931
849,42	30,572
849,59	45,573
849,76	29,733
849,93	49,473
850,09	50,036
850,26	25,315
850,43	62,826
850,60	32,248
850,77	30,656
850,94	44,656
851,10	43,188
851,27	39,496
851,44	47,017
851,61	34,596
851,78	59,991
851,95	55,119
852,11	41,180
852,28	33,693
852,45	60,181
852,62	54,424
852,79	56,414
852,95	43,645
853,12	51,199
853,29	45,974
853,46	32,303
853,63	48,831
853,79	35,010
853,96	36,394
854,13	56,411
854,30	43,513
854,46	62,571
854,63	43,853
854,80	45,883
854,97	42,840
855,14	67,869
855,30	51,649
855,47	48,969
855,64	40,760
855,81	44,549
855,97	64,272
856,14	46,191
856,31	26,815
856,48	62,250
856,65	64,444
856,81	47,335
856,98	29,932
857,15	32,626
857,32	59,113
857,48	35,423
857,65	62,403
857,82	64,304
857,99	49,729
858,15	56,632
858,32	38,566
858,49	34,660
858,65	80,826
858,82	49,457
858,99	54,260
859,16	53,589
859,32	62,291
859,49	45,758
859,66	60,337
859,83	45,124
859,99	41,863
860,16	39,287
860,33	58,433
860,49	50,286
860,66	53,797
860,83	43,933
861,00	43,962
861,16	67,426
861,33	61,636
861,50	35,853
861,66	51,747
861,83	63,491
862,00	38,731
862,16	46,640
862,33	48,805
862,50	87,834
862,67	48,512
862,83	39,190
863,00	46,327
863,17	59,183
863,33	45,976
863,50	27,195
863,67	54,632
863,83	64,819
864,00	48,208
864,17	41,211
864,33	35,686
864,50	43,236
864,67	53,979
864,83	32,800
865,00	48,788
865,17	30,202
865,33	60,122
865,50	34,480
865,67	45,197
865,83	66,644
866,00	71,089
866,17	48,109
866,33	52,917
866,50	48,305
866,66	53,170
866,83	44,512
867,00	65,917
867,16	83,248
867,33	95,591
867,50	58,497
867,66	54,399
867,83	72,893
868,00	59,109
868,16	66,863
868,33	52,254
868,49	42,187
868,66	79,482
868,83	39,106
868,99	59,295
869,16	89,904
869,32	71,552
869,49	52,982
869,66	50,581
869,82	88,458
869,99	76,028
870,15	47,104
870,32	57,708
870,49	125,532
870,65	97,582
870,82	67,940
870,98	68,879
871,15	96,155
871,32	62,674
871,48	58,128
871,65	50,351
871,81	56,742
871,98	35,242
872,15	34,416
872,31	39,373
872,48	95,573
872,64	75,770
872,81	70,836
872,97	49,915
873,14	107,807
873,31	71,288
873,47	51,335
873,64	66,284
873,80	109,226
873,97	116,466
874,13	94,412
874,30	66,549
874,46	70,733
874,63	61,223
874,80	53,157
874,96	51,609
875,13	108,609
875,29	66,345
875,46	74,896
875,62	37,734
875,79	104,258
875,95	35,960
876,12	51,241
876,28	29,413
876,45	145,670
876,61	38,758
876,78	47,934
876,94	42,779
877,11	89,537
877,27	155,491
877,44	67,024
877,60	63,357
877,77	86,310
877,94	171,050
878,10	47,710
878,27	81,321
878,43	136,599
878,60	56,685
878,76	98,609
878,93	100,576
879,09	47,515
879,26	107,968
879,42	98,859
879,58	80,067
879,75	105,293
879,91	136,464
880,08	68,047
880,24	58,330
880,41	39,576
880,57	82,128
880,74	131,642
880,90	66,316
881,07	69,788
881,23	148,664
881,40	93,966
881,56	78,579
881,73	168,114
881,89	96,944
882,06	42,642
882,22	148,654
882,38	125,983
882,55	149,581
882,71	86,940
882,88	72,058
883,04	78,838
883,21	180,507
883,37	139,322
883,54	118,548
883,70	250,851
883,86	142,278
884,03	150,739
884,19	85,069
884,36	149,516
884,52	114,323
884,69	120,526
884,85	70,039
885,01	86,119
885,18	156,492
885,34	72,906
885,51	38,655
885,67	85,721
>>>>> Data<<<<< Espectral Procesado Extremo
