Fichero De Datos De SpectraSuite
++++++++++++++++++++++++++++++++++++
Fecha: Wed Apr 22 10:21:28 CEST 2009
Usuario: evoflor
Presente Oscuro Del Espectro: Sí
La Referencia de Presente Del Espectro De: Sí
Muestreados de los componentes de Número de espectros: 1
Espectrómetros: USB4F02353
Tiempo de integración (usec): 500000 (USB4F02353)
Promedio de Espectros Hechos un: 5 (USB4F02353)
El Alisar Del Furgón: 0 (USB4F02353)
Párrafo de de Corregir del la del del de Eléctrica del obscuridad: Sí (USB4F02353)
Estrobo/Lámpara Permitido: No (USB4F02353)
Correct for Detector Non-linearity: No (USB4F02353)
Párrafo de de Corregir del la del del de Externa del luz: No (USB4F02353)
Procesado del espectro de Número de pixeles en: 3648
>>>>> Comienza Data<<<<< Espectral Procesado Del EL
177,79	177,767
178,00	177,767
178,22	177,767
178,44	-277,253
178,66	-26,180
178,88	193,388
179,09	-344,809
179,31	1,617
179,53	78,111
179,75	57,018
179,96	985,603
180,18	52,523
180,40	114,745
180,62	422,626
180,83	264,174
181,05	-571,098
181,27	-63930,000
181,49	172,109
181,70	-193,731
181,92	402,183
182,14	257,620
182,36	108,356
182,58	503,700
182,79	566,652
183,01	47,995
183,23	22,745
183,45	-77,631
183,66	-55,885
183,88	-148,059
184,10	-2111,455
184,32	115,916
184,53	57,269
184,75	-35,474
184,97	11,963
185,18	-55,883
185,40	-147,260
185,62	51,459
185,84	19,716
186,05	-11,399
186,27	-81,048
186,49	208,846
186,71	-77,218
186,92	41,391
187,14	115,375
187,36	31,801
187,58	126,128
187,79	10,897
188,01	101,592
188,23	-107,472
188,45	137,412
188,66	333,616
188,88	-213,273
189,10	-306,300
189,31	104,386
189,53	248,047
189,75	180,068
189,97	13,962
190,18	-308,884
190,40	481,941
190,62	-115,693
190,83	-117,374
191,05	137,409
191,27	272,657
191,49	202,797
191,70	-220,817
191,92	-68,898
192,14	-11,217
192,35	267,454
192,57	1543,714
192,79	156,167
193,01	61,224
193,22	113,415
193,44	-30,768
193,66	102,070
193,87	7,773
194,09	56,768
194,31	4,296
194,53	560,350
194,74	104,565
194,96	97,864
195,18	111,141
195,39	-28,575
195,61	-10,761
195,83	-117,457
196,04	37,170
196,26	-117,739
196,48	-0,037
196,70	30,477
196,91	-27,113
197,13	22,861
197,35	95,666
197,56	390,186
197,78	1202,463
198,00	522,587
198,21	485,097
198,43	57,384
198,65	95,774
198,86	161,978
199,08	-147,443
199,30	1,883
199,51	-140,814
199,73	148,973
199,95	294,134
200,16	225,115
200,38	178,692
200,60	128,431
200,81	212,056
201,03	-105,082
201,25	-900,300
201,46	180,907
201,68	117,936
201,90	287,045
202,11	27,366
202,33	192,334
202,55	-550,875
202,76	15,412
202,98	200,801
203,20	-116,971
203,41	-578,053
203,63	-2,883
203,85	-117930,000
204,06	27,216
204,28	23,783
204,50	71,151
204,71	23,905
204,93	-50,160
205,15	-176,114
205,36	-12,103
205,58	101,977
205,80	43,417
206,01	35,170
206,23	102,518
206,45	57,843
206,66	119,382
206,88	-4,588
207,10	-61,295
207,31	72,755
207,53	51,514
207,75	-11,806
207,96	127,836
208,18	-112,167
208,39	7,259
208,61	2058,000
208,83	-55,840
209,04	40,535
209,26	-398,295
209,48	261,292
209,69	108,919
209,91	225,101
210,13	68,740
210,34	-87,094
210,56	112,429
210,77	-1183,701
210,99	27,736
211,21	2331,176
211,42	64,336
211,64	99,319
211,86	159,133
212,07	132,702
212,29	51,314
212,50	80,573
212,72	-262,962
212,94	164,737
213,15	131,768
213,37	100,909
213,58	-53,947
213,80	352,500
214,02	7042,941
214,23	128,157
214,45	236,164
214,67	-1789,390
214,88	135,805
215,10	-60,264
215,31	-68,712
215,53	116,659
215,75	-7,774
215,96	145,528
216,18	-684,085
216,39	216,592
216,61	66,878
216,83	-19,955
217,04	859,888
217,26	23,274
217,47	126,024
217,69	208,265
217,91	30,077
218,12	8970,000
218,34	2,099
218,55	145,703
218,77	25,291
218,99	114,559
219,20	7,179
219,42	79,619
219,63	99,723
219,85	38,655
220,06	159,346
220,28	99,274
220,50	103,578
220,71	74,563
220,93	493,019
221,14	-900,300
221,36	85,985
221,58	-14,782
221,79	-34,794
222,01	318,362
222,22	124,539
222,44	-565,955
222,65	125,410
222,87	-383,706
223,09	102,576
223,30	58,671
223,52	57,102
223,73	213,745
223,95	-29,113
224,16	126,247
224,38	46,991
224,60	13,320
224,81	16,775
225,03	146,729
225,24	117,321
225,46	-76,196
225,67	30,117
225,89	48,338
226,10	233,223
226,32	-129,360
226,54	52,273
226,75	70,218
226,97	92,443
227,18	19,901
227,40	-45,529
227,61	26,554
227,83	-14,441
228,04	23,178
228,26	31,034
228,47	49,708
228,69	-26,082
228,91	18,798
229,12	51,671
229,34	64,056
229,55	12,809
229,77	-16,406
229,98	-5,326
230,20	10,371
230,41	30,397
230,63	39,514
230,84	30,230
231,06	18,897
231,27	9,575
231,49	6,761
231,71	23,530
231,92	38,521
232,14	-0,738
232,35	25,474
232,57	61,281
232,78	6,281
233,00	-5,766
233,21	12,689
233,43	15,737
233,64	13,478
233,86	37,125
234,07	-1,889
234,29	24,886
234,50	2,812
234,72	16,097
234,93	-10,879
235,15	20,844
235,36	23,189
235,58	1,964
235,79	13,478
236,01	18,430
236,22	-4,149
236,44	20,688
236,65	20,337
236,87	12,358
237,08	17,150
237,30	-13,979
237,51	14,634
237,73	-12,839
237,94	-6,672
238,16	10,093
238,37	0,527
238,59	15,867
238,80	13,271
239,02	5,917
239,23	10,833
239,45	-15,138
239,66	8,329
239,88	10,191
240,09	16,530
240,31	-11,524
240,52	9,104
240,74	10,059
240,95	6,280
241,17	-0,979
241,38	13,409
241,60	7,215
241,81	18,919
242,03	7,325
242,24	2,257
242,46	8,851
242,67	3,692
242,89	8,503
243,10	14,517
243,32	5,601
243,53	4,141
243,75	3,236
243,96	-3,415
244,18	7,645
244,39	-0,438
244,60	5,045
244,82	2,120
245,03	7,310
245,25	3,535
245,46	9,449
245,68	3,345
245,89	2,896
246,11	4,569
246,32	5,039
246,54	-0,571
246,75	5,451
246,97	0,411
247,18	13,191
247,39	-0,503
247,61	-4,225
247,82	3,059
248,04	6,549
248,25	5,526
248,47	3,286
248,68	2,325
248,90	0,240
249,11	8,767
249,33	5,480
249,54	3,071
249,75	7,893
249,97	4,251
250,18	4,384
250,40	12,136
250,61	-0,055
250,83	6,107
251,04	-0,690
251,25	6,327
251,47	-0,099
251,68	10,709
251,90	7,465
252,11	9,068
252,33	5,686
252,54	3,745
252,76	3,642
252,97	0,525
253,18	0,245
253,40	3,221
253,61	1,094
253,83	7,983
254,04	5,964
254,25	8,053
254,47	3,920
254,68	3,973
254,90	2,709
255,11	7,181
255,33	2,970
255,54	-2,204
255,75	3,402
255,97	1,684
256,18	0,442
256,40	1,704
256,61	5,581
256,82	-2,565
257,04	4,946
257,25	-1,642
257,47	2,306
257,68	1,684
257,89	4,040
258,11	2,724
258,32	3,179
258,54	4,400
258,75	3,119
258,96	5,516
259,18	2,838
259,39	1,204
259,61	7,810
259,82	-0,916
260,03	7,453
260,25	4,453
260,46	-0,078
260,68	2,587
260,89	6,762
261,10	0,406
261,32	2,864
261,53	1,055
261,75	5,555
261,96	-2,909
262,17	5,011
262,39	9,969
262,60	2,768
262,81	2,410
263,03	7,130
263,24	2,603
263,46	-3,443
263,67	4,057
263,88	0,124
264,10	2,618
264,31	0,084
264,52	4,922
264,74	4,812
264,95	-0,113
265,17	2,214
265,38	2,705
265,59	1,305
265,81	1,608
266,02	-3,424
266,23	-0,037
266,45	-3,698
266,66	9,537
266,87	5,840
267,09	1,712
267,30	2,910
267,52	2,472
267,73	3,215
267,94	2,157
268,16	3,098
268,37	4,580
268,58	3,786
268,80	6,075
269,01	2,488
269,22	3,586
269,44	5,638
269,65	6,438
269,86	-2,813
270,08	5,539
270,29	1,213
270,50	7,800
270,72	6,110
270,93	3,707
271,14	2,960
271,36	5,797
271,57	6,525
271,78	1,510
272,00	6,739
272,21	6,326
272,42	5,412
272,64	3,220
272,85	1,761
273,06	3,404
273,28	2,603
273,49	4,379
273,70	4,226
273,92	2,954
274,13	5,955
274,34	1,829
274,56	4,207
274,77	1,105
274,98	-2,640
275,20	3,139
275,41	6,260
275,62	6,258
275,84	1,089
276,05	5,060
276,26	3,492
276,47	0,602
276,69	2,198
276,90	2,959
277,11	1,427
277,33	0,938
277,54	4,178
277,75	2,749
277,97	2,574
278,18	4,267
278,39	1,020
278,61	0,071
278,82	2,831
279,03	4,417
279,24	4,662
279,46	0,367
279,67	6,333
279,88	5,183
280,10	2,446
280,31	2,819
280,52	3,920
280,73	1,254
280,95	1,878
281,16	3,940
281,37	3,354
281,59	7,791
281,80	4,766
282,01	2,680
282,22	2,774
282,44	3,514
282,65	7,250
282,86	6,226
283,08	1,887
283,29	0,621
283,50	3,695
283,71	4,769
283,93	4,580
284,14	6,701
284,35	4,949
284,56	2,925
284,78	4,099
284,99	2,475
285,20	5,037
285,42	1,399
285,63	3,805
285,84	0,493
286,05	1,735
286,27	4,751
286,48	-0,267
286,69	2,953
286,90	-0,522
287,12	2,209
287,33	2,944
287,54	1,534
287,75	1,831
287,97	3,069
288,18	1,476
288,39	3,272
288,60	2,148
288,82	2,426
289,03	3,692
289,24	3,973
289,45	6,344
289,67	3,235
289,88	2,273
290,09	2,750
290,30	3,928
290,52	1,762
290,73	2,666
290,94	0,496
291,15	3,017
291,37	1,239
291,58	3,070
291,79	2,857
292,00	4,078
292,21	4,401
292,43	-0,107
292,64	3,657
292,85	0,563
293,06	7,169
293,28	0,737
293,49	0,291
293,70	4,022
293,91	3,568
294,12	4,004
294,34	0,367
294,55	3,186
294,76	1,264
294,97	3,085
295,19	-1,073
295,40	4,878
295,61	4,504
295,82	1,753
296,03	2,246
296,25	0,180
296,46	1,816
296,67	3,150
296,88	2,228
297,09	6,487
297,31	2,287
297,52	2,349
297,73	3,216
297,94	1,203
298,15	2,859
298,37	5,690
298,58	4,483
298,79	3,676
299,00	1,917
299,21	1,741
299,43	1,922
299,64	5,396
299,85	6,418
300,06	2,666
300,27	-1,455
300,49	5,222
300,70	0,260
300,91	2,844
301,12	1,691
301,33	4,543
301,54	2,458
301,76	3,223
301,97	1,058
302,18	2,837
302,39	5,805
302,60	3,854
302,82	3,439
303,03	2,795
303,24	2,836
303,45	2,982
303,66	1,872
303,87	3,956
304,09	5,311
304,30	4,958
304,51	2,522
304,72	2,781
304,93	2,347
305,14	4,052
305,36	0,952
305,57	0,146
305,78	3,127
305,99	1,622
306,20	2,537
306,41	1,197
306,62	2,389
306,84	3,818
307,05	1,469
307,26	2,439
307,47	3,782
307,68	1,944
307,89	2,736
308,11	2,525
308,32	-0,394
308,53	1,689
308,74	0,813
308,95	2,607
309,16	1,885
309,37	3,693
309,59	-0,222
309,80	3,984
310,01	5,211
310,22	4,912
310,43	3,017
310,64	2,818
310,85	3,140
311,06	2,746
311,28	2,511
311,49	1,550
311,70	5,779
311,91	1,203
312,12	2,346
312,33	3,443
312,54	3,294
312,75	1,570
312,97	3,859
313,18	4,455
313,39	4,383
313,60	2,447
313,81	2,643
314,02	1,133
314,23	5,073
314,44	2,989
314,65	2,902
314,87	1,932
315,08	1,813
315,29	6,371
315,50	3,783
315,71	3,071
315,92	5,574
316,13	5,700
316,34	4,105
316,55	1,736
316,77	1,313
316,98	2,362
317,19	2,901
317,40	6,536
317,61	3,965
317,82	3,140
318,03	2,389
318,24	3,157
318,45	2,397
318,66	4,035
318,87	1,662
319,09	4,468
319,30	2,234
319,51	3,245
319,72	1,982
319,93	3,567
320,14	4,564
320,35	4,231
320,56	1,515
320,77	0,920
320,98	5,089
321,19	4,865
321,40	3,753
321,62	3,215
321,83	2,355
322,04	2,476
322,25	3,410
322,46	2,651
322,67	4,244
322,88	2,397
323,09	1,145
323,30	2,520
323,51	1,977
323,72	6,631
323,93	4,464
324,14	2,121
324,35	-1,276
324,56	0,077
324,77	2,594
324,99	2,156
325,20	1,291
325,41	2,184
325,62	3,146
325,83	2,878
326,04	0,952
326,25	3,782
326,46	3,666
326,67	3,423
326,88	4,727
327,09	2,731
327,30	1,748
327,51	3,491
327,72	3,211
327,93	4,845
328,14	-1,286
328,35	1,109
328,56	5,154
328,77	2,578
328,98	6,995
329,19	2,842
329,40	1,129
329,61	4,185
329,82	2,272
330,04	1,319
330,25	-0,367
330,46	3,083
330,67	2,640
330,88	2,506
331,09	3,840
331,30	3,821
331,51	2,568
331,72	2,771
331,93	2,059
332,14	3,189
332,35	4,172
332,56	2,929
332,77	2,683
332,98	2,391
333,19	2,156
333,40	4,919
333,61	1,685
333,82	2,887
334,03	4,164
334,24	2,409
334,45	2,870
334,66	3,935
334,87	6,258
335,08	2,704
335,29	1,114
335,50	0,295
335,71	2,492
335,92	5,027
336,13	3,955
336,34	-1,100
336,55	6,125
336,76	5,148
336,97	2,267
337,18	0,739
337,39	5,095
337,60	2,430
337,81	2,840
338,02	1,781
338,23	1,788
338,44	4,334
338,65	3,398
338,86	3,834
339,07	0,320
339,28	3,458
339,49	2,293
339,70	1,624
339,91	2,190
340,11	4,325
340,32	-0,189
340,53	0,376
340,74	0,883
340,95	4,591
341,16	2,076
341,37	5,000
341,58	1,745
341,79	1,154
342,00	4,534
342,21	2,833
342,42	2,042
342,63	2,562
342,84	-1,669
343,05	3,363
343,26	3,923
343,47	1,921
343,68	-0,168
343,89	3,729
344,10	6,276
344,31	3,257
344,52	3,622
344,73	3,826
344,94	5,660
345,14	2,234
345,35	2,652
345,56	3,344
345,77	6,735
345,98	3,760
346,19	1,368
346,40	1,032
346,61	2,481
346,82	1,803
347,03	1,296
347,24	4,320
347,45	3,109
347,66	6,379
347,87	3,807
348,08	2,464
348,28	1,826
348,49	3,676
348,70	4,202
348,91	1,432
349,12	0,172
349,33	3,028
349,54	2,929
349,75	5,412
349,96	6,091
350,17	3,146
350,38	1,784
350,59	3,912
350,80	4,489
351,00	2,824
351,21	6,700
351,42	2,444
351,63	-0,309
351,84	2,575
352,05	4,428
352,26	1,570
352,47	1,169
352,68	4,473
352,89	6,518
353,09	4,688
353,30	1,024
353,51	5,993
353,72	4,245
353,93	2,690
354,14	2,343
354,35	3,336
354,56	5,604
354,77	5,272
354,98	2,543
355,18	4,967
355,39	3,827
355,60	3,696
355,81	3,815
356,02	2,919
356,23	2,290
356,44	4,079
356,65	4,905
356,85	6,697
357,06	2,473
357,27	4,995
357,48	-0,389
357,69	1,033
357,90	5,007
358,11	3,512
358,32	2,776
358,52	3,142
358,73	1,271
358,94	3,592
359,15	4,785
359,36	5,149
359,57	3,217
359,78	5,236
359,98	4,414
360,19	3,073
360,40	1,822
360,61	2,933
360,82	1,531
361,03	3,371
361,24	2,781
361,44	4,145
361,65	3,331
361,86	3,041
362,07	2,891
362,28	1,966
362,49	1,583
362,70	2,045
362,90	3,748
363,11	2,018
363,32	5,271
363,53	3,931
363,74	5,147
363,95	4,456
364,15	2,240
364,36	6,985
364,57	1,657
364,78	-0,029
364,99	5,510
365,20	5,660
365,40	4,448
365,61	2,459
365,82	4,393
366,03	-0,270
366,24	4,715
366,45	6,180
366,65	2,678
366,86	2,895
367,07	2,620
367,28	3,880
367,49	4,603
367,69	3,179
367,90	0,215
368,11	3,868
368,32	1,228
368,53	2,753
368,73	3,842
368,94	3,721
369,15	0,672
369,36	5,929
369,57	1,267
369,78	1,781
369,98	1,538
370,19	8,469
370,40	3,587
370,61	4,476
370,82	3,679
371,02	-0,216
371,23	6,720
371,44	5,525
371,65	3,779
371,85	6,444
372,06	3,032
372,27	1,633
372,48	4,324
372,69	2,253
372,89	2,347
373,10	0,517
373,31	-0,193
373,52	2,658
373,73	5,762
373,93	3,636
374,14	2,851
374,35	7,755
374,56	5,508
374,76	2,943
374,97	0,439
375,18	0,661
375,39	2,940
375,60	3,537
375,80	4,945
376,01	2,651
376,22	2,137
376,43	3,427
376,63	5,536
376,84	2,221
377,05	2,374
377,26	1,280
377,46	0,946
377,67	3,016
377,88	4,997
378,09	4,786
378,29	1,692
378,50	5,013
378,71	1,912
378,92	3,713
379,12	2,869
379,33	5,690
379,54	3,519
379,75	3,169
379,95	1,585
380,16	4,931
380,37	8,085
380,58	5,434
380,78	4,641
380,99	1,874
381,20	2,514
381,41	4,198
381,61	6,178
381,82	3,499
382,03	1,668
382,24	4,487
382,44	3,612
382,65	-0,060
382,86	1,493
383,06	-0,065
383,27	5,220
383,48	2,365
383,69	3,122
383,89	4,340
384,10	8,731
384,31	5,133
384,51	4,810
384,72	2,233
384,93	4,704
385,14	3,964
385,34	5,584
385,55	1,081
385,76	2,806
385,96	3,438
386,17	2,377
386,38	5,912
386,59	3,811
386,79	3,937
387,00	5,584
387,21	5,108
387,41	6,109
387,62	5,023
387,83	8,726
388,03	8,302
388,24	1,867
388,45	4,736
388,66	7,231
388,86	6,075
389,07	3,758
389,28	9,024
389,48	3,567
389,69	4,773
389,90	3,541
390,10	5,762
390,31	8,052
390,52	3,685
390,72	5,874
390,93	3,415
391,14	2,208
391,34	5,575
391,55	5,176
391,76	5,107
391,96	7,054
392,17	5,788
392,38	8,607
392,58	4,963
392,79	6,344
393,00	8,212
393,20	3,329
393,41	6,646
393,62	4,259
393,82	5,776
394,03	7,077
394,24	2,584
394,44	5,705
394,65	7,562
394,86	6,350
395,06	2,281
395,27	1,887
395,48	5,330
395,68	7,713
395,89	9,504
396,10	5,851
396,30	5,099
396,51	6,323
396,72	6,804
396,92	6,985
397,13	7,274
397,34	5,331
397,54	5,652
397,75	6,438
397,95	6,325
398,16	8,499
398,37	5,767
398,57	8,351
398,78	11,271
398,99	9,525
399,19	7,474
399,40	8,970
399,60	5,703
399,81	8,441
400,02	10,008
400,22	7,786
400,43	8,932
400,64	8,390
400,84	6,817
401,05	8,726
401,25	11,805
401,46	11,429
401,67	9,935
401,87	11,220
402,08	9,243
402,29	9,811
402,49	12,797
402,70	12,506
402,90	10,501
403,11	9,014
403,32	16,268
403,52	10,460
403,73	15,361
403,93	13,440
404,14	15,789
404,35	12,217
404,55	10,870
404,76	10,899
404,96	12,712
405,17	14,484
405,38	13,424
405,58	11,035
405,79	12,061
405,99	11,496
406,20	14,165
406,40	9,700
406,61	15,078
406,82	10,786
407,02	16,745
407,23	15,826
407,43	11,390
407,64	13,569
407,85	15,689
408,05	8,748
408,26	18,140
408,46	17,167
408,67	13,054
408,87	13,508
409,08	16,944
409,29	13,078
409,49	21,408
409,70	13,809
409,90	18,010
410,11	16,923
410,31	20,348
410,52	17,267
410,72	16,838
410,93	18,416
411,14	14,871
411,34	17,392
411,55	17,150
411,75	19,841
411,96	18,096
412,16	21,221
412,37	19,427
412,57	19,260
412,78	21,192
412,99	18,982
413,19	21,131
413,40	20,865
413,60	17,911
413,81	20,135
414,01	19,755
414,22	19,302
414,42	15,538
414,63	16,272
414,83	21,842
415,04	25,801
415,24	20,963
415,45	20,258
415,65	20,912
415,86	15,219
416,07	19,244
416,27	21,539
416,48	17,925
416,68	23,123
416,89	21,226
417,09	19,468
417,30	23,240
417,50	29,889
417,71	21,206
417,91	19,379
418,12	22,270
418,32	19,560
418,53	24,960
418,73	21,725
418,94	20,904
419,14	22,928
419,35	21,431
419,55	25,306
419,76	23,540
419,96	19,733
420,17	21,534
420,37	24,887
420,58	22,803
420,78	23,975
420,99	25,111
421,19	25,821
421,40	23,799
421,60	27,161
421,81	24,641
422,01	23,596
422,22	24,913
422,42	24,930
422,63	28,423
422,83	26,990
423,04	22,243
423,24	27,716
423,45	24,857
423,65	26,253
423,86	25,870
424,06	24,810
424,27	23,492
424,47	23,119
424,67	24,032
424,88	25,446
425,08	31,383
425,29	30,859
425,49	29,566
425,70	19,724
425,90	27,738
426,11	26,340
426,31	26,993
426,52	25,190
426,72	26,832
426,93	26,948
427,13	28,504
427,33	26,713
427,54	26,305
427,74	26,753
427,95	27,832
428,15	24,710
428,36	28,237
428,56	26,726
428,77	27,504
428,97	24,842
429,18	27,713
429,38	24,163
429,58	27,256
429,79	29,003
429,99	29,418
430,20	22,654
430,40	28,490
430,61	25,693
430,81	29,445
431,01	26,678
431,22	31,628
431,42	30,751
431,63	27,318
431,83	28,325
432,04	29,614
432,24	32,060
432,44	24,428
432,65	27,925
432,85	26,739
433,06	27,236
433,26	26,155
433,47	27,642
433,67	26,403
433,87	26,488
434,08	23,832
434,28	27,146
434,49	29,357
434,69	25,734
434,89	25,719
435,10	25,837
435,30	27,906
435,51	23,484
435,71	28,114
435,91	27,160
436,12	24,737
436,32	26,951
436,53	25,680
436,73	28,675
436,93	30,452
437,14	31,165
437,34	29,518
437,55	27,294
437,75	24,445
437,95	30,646
438,16	29,490
438,36	28,579
438,57	28,720
438,77	23,675
438,97	30,068
439,18	33,372
439,38	28,022
439,58	25,924
439,79	28,574
439,99	29,243
440,20	28,673
440,40	26,557
440,60	26,778
440,81	29,624
441,01	28,749
441,21	29,007
441,42	33,336
441,62	27,649
441,83	30,597
442,03	33,055
442,23	30,211
442,44	29,885
442,64	28,527
442,84	26,971
443,05	28,543
443,25	28,730
443,45	29,877
443,66	30,704
443,86	32,672
444,06	27,900
444,27	29,612
444,47	28,665
444,67	29,265
444,88	30,489
445,08	29,374
445,28	31,279
445,49	26,432
445,69	24,609
445,90	28,037
446,10	29,380
446,30	31,159
446,51	29,209
446,71	29,392
446,91	33,748
447,12	34,454
447,32	29,995
447,52	29,741
447,72	26,911
447,93	28,964
448,13	26,747
448,33	32,504
448,54	33,362
448,74	26,099
448,94	31,259
449,15	34,589
449,35	28,157
449,55	32,490
449,76	34,807
449,96	30,825
450,16	31,183
450,37	27,131
450,57	28,967
450,77	25,867
450,98	32,439
451,18	32,672
451,38	30,060
451,58	30,085
451,79	31,955
451,99	32,074
452,19	31,124
452,40	29,107
452,60	27,290
452,80	29,991
453,00	31,692
453,21	29,645
453,41	30,416
453,61	31,422
453,82	30,380
454,02	24,083
454,22	32,513
454,42	35,272
454,63	27,300
454,83	30,852
455,03	30,790
455,24	30,734
455,44	27,101
455,64	31,584
455,84	27,582
456,05	29,915
456,25	28,288
456,45	31,307
456,65	31,502
456,86	28,848
457,06	27,992
457,26	34,938
457,47	30,380
457,67	30,571
457,87	27,634
458,07	36,211
458,28	34,988
458,48	29,230
458,68	30,245
458,88	31,248
459,09	32,227
459,29	32,911
459,49	34,823
459,69	29,523
459,90	30,997
460,10	31,505
460,30	29,743
460,50	26,674
460,71	29,514
460,91	26,196
461,11	32,820
461,31	28,377
461,52	32,479
461,72	33,454
461,92	30,763
462,12	34,862
462,32	28,404
462,53	26,674
462,73	33,224
462,93	36,540
463,13	30,670
463,34	32,253
463,54	28,647
463,74	31,938
463,94	30,433
464,14	30,372
464,35	29,721
464,55	33,167
464,75	33,336
464,95	31,462
465,16	26,229
465,36	32,305
465,56	30,114
465,76	30,296
465,96	30,312
466,17	27,590
466,37	29,563
466,57	30,889
466,77	32,863
466,97	30,318
467,18	28,149
467,38	29,166
467,58	30,264
467,78	31,354
467,98	34,869
468,19	30,174
468,39	35,747
468,59	31,390
468,79	32,904
468,99	29,049
469,19	31,322
469,40	35,597
469,60	31,723
469,80	28,164
470,00	28,921
470,20	33,752
470,41	31,726
470,61	33,149
470,81	31,208
471,01	30,171
471,21	30,261
471,41	31,511
471,62	26,900
471,82	32,004
472,02	30,121
472,22	31,303
472,42	30,626
472,62	32,773
472,83	31,806
473,03	31,006
473,23	30,040
473,43	31,455
473,63	31,825
473,83	34,269
474,03	29,163
474,24	34,781
474,44	29,516
474,64	28,531
474,84	30,523
475,04	34,066
475,24	31,991
475,45	29,517
475,65	27,199
475,85	34,061
476,05	31,457
476,25	28,582
476,45	28,240
476,65	32,588
476,85	29,959
477,06	30,565
477,26	30,561
477,46	30,541
477,66	27,173
477,86	31,301
478,06	28,835
478,26	32,820
478,46	31,859
478,67	29,700
478,87	29,797
479,07	29,496
479,27	30,705
479,47	33,753
479,67	25,348
479,87	27,862
480,07	29,389
480,28	29,391
480,48	29,699
480,68	29,959
480,88	32,304
481,08	30,739
481,28	33,144
481,48	31,848
481,68	28,673
481,88	30,306
482,08	28,055
482,29	32,473
482,49	26,307
482,69	28,605
482,89	31,394
483,09	31,430
483,29	29,667
483,49	29,609
483,69	29,776
483,89	31,438
484,09	29,150
484,29	27,058
484,50	30,083
484,70	29,616
484,90	28,608
485,10	27,799
485,30	29,884
485,50	27,247
485,70	31,157
485,90	26,402
486,10	26,797
486,30	30,701
486,50	28,183
486,70	27,274
486,90	29,106
487,10	30,533
487,30	29,999
487,51	28,818
487,71	26,090
487,91	25,711
488,11	29,308
488,31	28,181
488,51	29,186
488,71	28,463
488,91	29,786
489,11	28,911
489,31	30,339
489,51	29,258
489,71	31,913
489,91	28,254
490,11	27,469
490,31	28,458
490,51	32,477
490,71	28,648
490,91	26,244
491,11	29,868
491,31	30,863
491,51	27,333
491,72	29,150
491,92	29,528
492,12	31,435
492,32	29,465
492,52	32,811
492,72	29,957
492,92	30,031
493,12	31,600
493,32	29,522
493,52	27,795
493,72	29,838
493,92	31,573
494,12	32,674
494,32	32,477
494,52	29,238
494,72	30,098
494,92	27,283
495,12	29,914
495,32	30,293
495,52	27,635
495,72	30,372
495,92	33,261
496,12	30,785
496,32	31,050
496,52	31,265
496,72	28,236
496,92	33,896
497,12	31,067
497,32	29,917
497,52	31,495
497,72	33,220
497,92	31,163
498,12	30,387
498,32	30,163
498,52	33,487
498,72	30,313
498,92	30,195
499,12	34,573
499,32	30,256
499,52	33,483
499,72	35,643
499,92	31,191
500,12	31,817
500,32	34,286
500,52	31,566
500,72	38,430
500,91	33,857
501,11	33,084
501,31	31,257
501,51	34,037
501,71	34,596
501,91	34,835
502,11	32,715
502,31	32,920
502,51	34,016
502,71	32,408
502,91	35,308
503,11	33,259
503,31	30,685
503,51	32,209
503,71	32,097
503,91	35,641
504,11	33,034
504,31	33,079
504,51	34,014
504,71	35,108
504,91	34,040
505,10	32,145
505,30	34,578
505,50	33,885
505,70	33,190
505,90	31,733
506,10	33,131
506,30	32,078
506,50	34,729
506,70	36,042
506,90	32,097
507,10	32,579
507,30	33,350
507,50	33,423
507,70	34,263
507,89	31,686
508,09	32,879
508,29	33,971
508,49	35,894
508,69	31,287
508,89	32,780
509,09	34,501
509,29	34,405
509,49	35,409
509,69	35,398
509,89	34,790
510,09	34,898
510,28	31,796
510,48	32,542
510,68	35,119
510,88	33,522
511,08	31,641
511,28	34,162
511,48	32,084
511,68	34,887
511,88	32,460
512,07	32,384
512,27	36,606
512,47	34,486
512,67	31,815
512,87	34,231
513,07	32,366
513,27	33,908
513,47	33,449
513,67	33,572
513,86	35,483
514,06	33,287
514,26	35,454
514,46	35,285
514,66	32,980
514,86	34,070
515,06	36,227
515,26	35,871
515,45	34,419
515,65	32,484
515,85	33,493
516,05	34,833
516,25	34,504
516,45	32,951
516,65	32,075
516,84	34,073
517,04	35,807
517,24	34,851
517,44	35,568
517,64	36,662
517,84	34,851
518,04	35,168
518,23	36,359
518,43	35,132
518,63	33,098
518,83	35,154
519,03	33,824
519,23	35,704
519,42	36,384
519,62	34,060
519,82	37,250
520,02	32,856
520,22	35,190
520,42	35,501
520,61	34,751
520,81	37,038
521,01	35,216
521,21	30,342
521,41	32,519
521,61	36,299
521,80	33,195
522,00	34,367
522,20	34,008
522,40	34,900
522,60	34,251
522,79	31,760
522,99	32,085
523,19	32,838
523,39	33,828
523,59	34,231
523,78	37,082
523,98	32,731
524,18	35,008
524,38	33,319
524,58	33,807
524,77	35,833
524,97	35,059
525,17	35,639
525,37	35,521
525,57	34,398
525,76	34,414
525,96	35,911
526,16	33,613
526,36	33,039
526,56	32,177
526,75	33,547
526,95	32,903
527,15	33,415
527,35	35,271
527,55	35,187
527,74	38,285
527,94	33,683
528,14	32,073
528,34	34,175
528,53	33,420
528,73	32,289
528,93	34,291
529,13	32,423
529,32	34,488
529,52	35,382
529,72	33,637
529,92	33,725
530,12	34,610
530,31	32,825
530,51	37,099
530,71	36,084
530,91	33,605
531,10	30,649
531,30	33,972
531,50	34,554
531,70	35,632
531,89	33,417
532,09	33,710
532,29	33,194
532,49	33,450
532,68	34,933
532,88	34,754
533,08	32,749
533,28	33,706
533,47	32,513
533,67	35,906
533,87	32,875
534,06	36,506
534,26	34,263
534,46	32,115
534,66	33,562
534,85	34,540
535,05	29,841
535,25	33,983
535,45	33,525
535,64	31,747
535,84	32,858
536,04	31,520
536,23	31,723
536,43	32,116
536,63	32,148
536,83	36,191
537,02	33,357
537,22	32,837
537,42	32,579
537,61	33,473
537,81	32,203
538,01	30,104
538,20	31,092
538,40	31,048
538,60	31,086
538,80	30,784
538,99	30,533
539,19	29,746
539,39	30,063
539,58	28,718
539,78	28,129
539,98	28,182
540,17	27,757
540,37	26,142
540,57	26,325
540,76	26,140
540,96	25,121
541,16	26,467
541,36	23,465
541,55	22,664
541,75	23,939
541,95	23,621
542,14	23,813
542,34	23,011
542,54	22,929
542,73	22,816
542,93	24,380
543,13	23,974
543,32	22,654
543,52	22,799
543,72	22,440
543,91	24,292
544,11	23,095
544,31	23,975
544,50	23,620
544,70	23,546
544,89	24,899
545,09	24,710
545,29	23,269
545,48	24,287
545,68	24,427
545,88	25,148
546,07	23,708
546,27	25,877
546,47	27,589
546,66	27,578
546,86	27,186
547,06	24,958
547,25	27,073
547,45	29,380
547,64	26,193
547,84	29,662
548,04	28,334
548,23	29,741
548,43	29,922
548,63	29,393
548,82	29,220
549,02	28,570
549,21	30,446
549,41	30,639
549,61	29,297
549,80	30,841
550,00	30,843
550,20	30,039
550,39	31,373
550,59	30,064
550,78	31,139
550,98	29,437
551,18	31,656
551,37	31,125
551,57	32,483
551,76	30,538
551,96	32,850
552,16	32,662
552,35	29,942
552,55	30,657
552,74	31,790
552,94	31,890
553,14	31,684
553,33	31,996
553,53	31,255
553,72	32,640
553,92	32,594
554,12	29,979
554,31	34,255
554,51	30,996
554,70	30,883
554,90	32,764
555,09	32,163
555,29	33,956
555,49	32,724
555,68	32,892
555,88	29,634
556,07	32,233
556,27	33,029
556,46	31,986
556,66	32,895
556,86	34,159
557,05	30,541
557,25	32,999
557,44	32,858
557,64	30,615
557,83	33,465
558,03	32,253
558,22	31,045
558,42	31,328
558,62	33,448
558,81	31,958
559,01	31,719
559,20	32,548
559,40	31,386
559,59	30,656
559,79	33,176
559,98	33,145
560,18	33,272
560,37	34,093
560,57	32,442
560,76	32,220
560,96	30,951
561,16	32,335
561,35	33,408
561,55	34,928
561,74	32,904
561,94	34,153
562,13	32,532
562,33	33,644
562,52	31,915
562,72	31,916
562,91	32,831
563,11	32,447
563,30	34,411
563,50	29,483
563,69	32,650
563,89	29,671
564,08	35,144
564,28	32,577
564,47	31,225
564,67	33,895
564,86	33,203
565,06	31,120
565,25	32,001
565,45	33,413
565,64	34,502
565,84	33,920
566,03	32,449
566,23	32,543
566,42	34,485
566,62	33,882
566,81	33,692
567,01	34,891
567,20	33,171
567,40	33,229
567,59	32,234
567,79	34,260
567,98	35,861
568,18	34,747
568,37	36,273
568,57	35,611
568,76	34,838
568,96	36,041
569,15	33,318
569,35	33,379
569,54	34,036
569,73	34,701
569,93	33,799
570,12	33,297
570,32	32,980
570,51	32,566
570,71	33,882
570,90	34,114
571,10	32,251
571,29	33,204
571,49	32,739
571,68	33,700
571,87	34,542
572,07	34,122
572,26	34,594
572,46	33,892
572,65	34,994
572,85	32,692
573,04	32,777
573,24	33,628
573,43	33,354
573,62	35,389
573,82	33,620
574,01	34,036
574,21	33,990
574,40	32,688
574,60	31,671
574,79	34,015
574,98	32,637
575,18	35,429
575,37	33,589
575,57	33,086
575,76	33,156
575,96	35,064
576,15	33,013
576,34	33,562
576,54	34,730
576,73	34,315
576,93	32,428
577,12	33,741
577,31	33,150
577,51	32,745
577,70	31,950
577,90	33,764
578,09	31,657
578,28	31,636
578,48	33,766
578,67	33,906
578,87	33,422
579,06	32,798
579,25	34,698
579,45	34,011
579,64	32,495
579,84	32,859
580,03	32,411
580,22	33,911
580,42	30,247
580,61	33,648
580,81	33,046
581,00	34,560
581,19	31,673
581,39	32,350
581,58	32,561
581,77	33,584
581,97	33,496
582,16	32,175
582,35	31,311
582,55	33,819
582,74	33,721
582,94	31,617
583,13	32,803
583,32	31,908
583,52	32,066
583,71	31,638
583,90	32,254
584,10	32,038
584,29	32,893
584,48	30,872
584,68	33,282
584,87	32,112
585,06	32,920
585,26	31,965
585,45	31,299
585,65	32,101
585,84	32,895
586,03	32,377
586,23	30,091
586,42	30,892
586,61	32,267
586,81	31,889
587,00	32,616
587,19	30,796
587,39	32,722
587,58	32,037
587,77	31,883
587,97	31,720
588,16	31,416
588,35	32,716
588,54	32,850
588,74	31,525
588,93	30,553
589,12	32,729
589,32	30,940
589,51	31,752
589,70	31,195
589,90	32,071
590,09	32,987
590,28	34,703
590,48	31,027
590,67	32,001
590,86	31,607
591,06	31,345
591,25	31,596
591,44	32,251
591,63	32,114
591,83	33,534
592,02	32,405
592,21	32,195
592,41	32,080
592,60	33,428
592,79	31,778
592,98	30,732
593,18	34,023
593,37	33,325
593,56	33,579
593,76	32,482
593,95	31,176
594,14	31,672
594,33	33,409
594,53	33,210
594,72	32,077
594,91	34,084
595,10	34,040
595,30	31,496
595,49	32,723
595,68	32,972
595,88	33,496
596,07	33,277
596,26	33,222
596,45	33,081
596,65	29,280
596,84	31,349
597,03	32,491
597,22	33,239
597,42	34,257
597,61	33,108
597,80	32,573
597,99	33,063
598,19	33,904
598,38	33,920
598,57	32,972
598,76	33,125
598,95	33,317
599,15	33,727
599,34	33,239
599,53	32,666
599,72	35,072
599,92	32,412
600,11	33,312
600,30	32,809
600,49	33,204
600,69	31,486
600,88	32,643
601,07	32,898
601,26	33,598
601,45	33,384
601,65	31,870
601,84	33,081
602,03	32,560
602,22	33,179
602,42	33,727
602,61	32,274
602,80	32,710
602,99	33,399
603,18	30,027
603,38	33,671
603,57	33,931
603,76	33,343
603,95	33,171
604,14	33,741
604,34	33,374
604,53	33,849
604,72	32,983
604,91	32,003
605,10	33,021
605,29	33,085
605,49	33,922
605,68	33,247
605,87	31,614
606,06	32,655
606,25	32,893
606,45	32,995
606,64	32,604
606,83	33,405
607,02	31,689
607,21	31,131
607,40	32,234
607,60	30,930
607,79	31,062
607,98	29,551
608,17	30,292
608,36	30,227
608,55	29,661
608,75	29,211
608,94	29,104
609,13	27,395
609,32	26,867
609,51	25,826
609,70	26,557
609,89	26,280
610,09	25,893
610,28	26,707
610,47	25,751
610,66	25,012
610,85	25,025
611,04	26,866
611,23	26,076
611,43	26,445
611,62	25,191
611,81	25,469
612,00	26,373
612,19	26,072
612,38	26,325
612,57	27,578
612,77	26,756
612,96	27,359
613,15	26,957
613,34	28,724
613,53	27,760
613,72	29,692
613,91	29,852
614,10	28,852
614,29	29,476
614,49	29,780
614,68	27,981
614,87	29,867
615,06	28,962
615,25	28,119
615,44	31,398
615,63	28,431
615,82	29,430
616,01	28,935
616,21	29,729
616,40	30,115
616,59	32,138
616,78	29,819
616,97	30,197
617,16	30,361
617,35	31,610
617,54	31,466
617,73	30,534
617,92	30,573
618,11	32,041
618,31	28,304
618,50	30,036
618,69	29,140
618,88	28,133
619,07	30,178
619,26	28,797
619,45	30,098
619,64	30,105
619,83	30,431
620,02	29,961
620,21	31,267
620,40	30,416
620,59	31,300
620,78	28,379
620,97	30,305
621,17	29,290
621,36	29,874
621,55	30,588
621,74	31,089
621,93	30,315
622,12	30,597
622,31	30,266
622,50	28,574
622,69	29,494
622,88	31,757
623,07	31,882
623,26	28,578
623,45	30,020
623,64	30,565
623,83	30,488
624,02	31,198
624,21	29,142
624,40	31,200
624,59	30,082
624,78	29,738
624,97	30,454
625,16	28,880
625,35	28,207
625,54	29,577
625,73	30,460
625,92	31,061
626,12	29,861
626,31	31,261
626,50	31,493
626,69	30,816
626,88	28,845
627,07	29,931
627,26	30,449
627,45	28,520
627,64	29,551
627,83	31,617
628,02	29,595
628,21	29,427
628,40	28,113
628,59	29,735
628,78	29,290
628,97	30,546
629,16	29,562
629,35	28,712
629,54	30,121
629,73	30,205
629,92	29,017
630,10	30,163
630,29	30,782
630,48	29,179
630,67	29,014
630,86	27,280
631,05	30,259
631,24	31,359
631,43	29,116
631,62	29,653
631,81	30,727
632,00	29,332
632,19	29,426
632,38	30,202
632,57	30,097
632,76	30,479
632,95	29,726
633,14	30,107
633,33	29,823
633,52	30,837
633,71	28,835
633,90	29,699
634,09	29,632
634,28	31,512
634,47	29,610
634,66	30,118
634,85	28,287
635,04	32,695
635,22	31,111
635,41	30,753
635,60	30,400
635,79	31,462
635,98	29,756
636,17	30,848
636,36	30,706
636,55	30,337
636,74	29,762
636,93	30,107
637,12	29,970
637,31	29,821
637,50	29,774
637,69	28,935
637,87	31,491
638,06	31,013
638,25	30,617
638,44	29,104
638,63	27,619
638,82	28,722
639,01	31,705
639,20	30,701
639,39	31,557
639,58	29,173
639,77	31,897
639,95	30,322
640,14	30,462
640,33	29,507
640,52	30,486
640,71	32,630
640,90	29,718
641,09	30,798
641,28	29,421
641,47	30,443
641,66	30,366
641,84	29,037
642,03	30,158
642,22	30,494
642,41	31,298
642,60	29,878
642,79	30,568
642,98	30,205
643,17	28,989
643,35	30,916
643,54	30,057
643,73	30,849
643,92	31,983
644,11	29,756
644,30	30,113
644,49	31,537
644,67	29,799
644,86	29,339
645,05	31,431
645,24	29,621
645,43	31,132
645,62	29,710
645,81	31,206
645,99	31,576
646,18	28,734
646,37	29,022
646,56	29,942
646,75	31,029
646,94	29,835
647,13	30,027
647,31	28,707
647,50	30,291
647,69	30,363
647,88	30,002
648,07	30,556
648,26	32,277
648,44	30,356
648,63	28,034
648,82	29,457
649,01	33,395
649,20	29,724
649,38	29,950
649,57	29,686
649,76	31,404
649,95	30,546
650,14	29,391
650,33	28,419
650,51	29,743
650,70	28,456
650,89	29,463
651,08	30,091
651,27	30,063
651,45	29,549
651,64	30,413
651,83	30,368
652,02	29,963
652,21	31,370
652,39	31,586
652,58	32,752
652,77	30,993
652,96	31,418
653,15	31,542
653,33	31,429
653,52	31,184
653,71	32,843
653,90	31,888
654,09	33,564
654,27	31,914
654,46	32,039
654,65	31,571
654,84	32,650
655,02	31,542
655,21	33,067
655,40	32,840
655,59	31,565
655,77	33,323
655,96	32,555
656,15	33,032
656,34	32,283
656,53	33,573
656,71	30,962
656,90	32,370
657,09	34,120
657,28	31,135
657,46	31,356
657,65	31,515
657,84	32,184
658,03	32,405
658,21	30,946
658,40	30,430
658,59	28,719
658,78	29,912
658,96	31,565
659,15	30,657
659,34	30,072
659,52	30,602
659,71	30,341
659,90	28,734
660,09	30,231
660,27	30,841
660,46	30,641
660,65	29,902
660,84	28,934
661,02	29,649
661,21	30,217
661,40	31,218
661,58	30,197
661,77	29,480
661,96	29,263
662,15	29,502
662,33	29,884
662,52	28,941
662,71	32,337
662,89	29,331
663,08	27,854
663,27	29,592
663,45	29,696
663,64	31,217
663,83	28,568
664,02	28,218
664,20	30,213
664,39	28,979
664,58	29,802
664,76	29,082
664,95	28,793
665,14	29,855
665,32	29,464
665,51	29,071
665,70	28,277
665,88	30,315
666,07	29,947
666,26	29,009
666,44	29,252
666,63	29,419
666,82	29,096
667,00	30,882
667,19	29,811
667,38	28,282
667,56	31,607
667,75	28,076
667,94	30,184
668,12	29,081
668,31	30,700
668,50	30,757
668,68	30,451
668,87	30,500
669,06	29,213
669,24	29,894
669,43	29,026
669,62	27,930
669,80	29,079
669,99	27,968
670,18	29,519
670,36	29,368
670,55	30,287
670,74	29,709
670,92	29,244
671,11	31,355
671,29	28,975
671,48	30,832
671,67	27,498
671,85	30,377
672,04	29,805
672,23	28,574
672,41	29,581
672,60	28,668
672,78	27,871
672,97	30,018
673,16	28,584
673,34	30,663
673,53	28,906
673,71	29,447
673,90	28,775
674,09	30,074
674,27	28,086
674,46	29,589
674,64	29,901
674,83	29,699
675,02	29,098
675,20	29,189
675,39	28,995
675,57	31,186
675,76	27,971
675,95	29,245
676,13	29,641
676,32	29,587
676,50	28,804
676,69	28,371
676,88	28,841
677,06	28,526
677,25	28,499
677,43	32,188
677,62	30,581
677,80	30,714
677,99	29,416
678,18	28,636
678,36	30,472
678,55	29,301
678,73	28,725
678,92	29,235
679,10	29,886
679,29	29,033
679,48	29,460
679,66	29,162
679,85	29,186
680,03	30,427
680,22	29,172
680,40	28,224
680,59	30,867
680,77	28,589
680,96	29,521
681,15	28,686
681,33	30,277
681,52	28,890
681,70	28,697
681,89	29,074
682,07	30,643
682,26	30,512
682,44	29,414
682,63	29,807
682,81	28,945
683,00	31,066
683,18	30,231
683,37	28,995
683,55	29,037
683,74	29,662
683,92	31,385
684,11	30,560
684,29	30,244
684,48	27,930
684,67	29,451
684,85	29,044
685,04	30,109
685,22	30,691
685,41	29,224
685,59	30,289
685,78	29,997
685,96	28,952
686,15	29,821
686,33	29,215
686,52	28,024
686,70	31,796
686,89	29,911
687,07	31,379
687,26	29,033
687,44	30,207
687,62	28,213
687,81	29,534
687,99	27,728
688,18	29,431
688,36	30,383
688,55	30,206
688,73	27,652
688,92	27,329
689,10	29,216
689,29	29,735
689,47	28,775
689,66	29,039
689,84	28,743
690,03	30,886
690,21	28,965
690,40	29,840
690,58	28,511
690,76	28,466
690,95	30,495
691,13	27,770
691,32	29,926
691,50	30,026
691,69	29,930
691,87	27,984
692,06	29,120
692,24	28,651
692,43	29,182
692,61	28,373
692,79	28,240
692,98	29,018
693,16	30,630
693,35	29,182
693,53	29,892
693,72	28,185
693,90	30,320
694,08	28,867
694,27	27,620
694,45	32,628
694,64	30,613
694,82	28,324
695,01	29,054
695,19	27,558
695,37	28,419
695,56	30,768
695,74	29,807
695,93	29,681
696,11	28,217
696,29	29,665
696,48	30,616
696,66	28,133
696,85	28,738
697,03	28,515
697,21	30,245
697,40	28,705
697,58	27,680
697,77	28,883
697,95	28,754
698,13	30,681
698,32	29,233
698,50	29,922
698,69	28,131
698,87	29,218
699,05	28,741
699,24	28,246
699,42	29,836
699,60	28,183
699,79	27,493
699,97	28,373
700,16	27,840
700,34	29,530
700,52	28,986
700,71	29,677
700,89	29,116
701,07	29,948
701,26	29,898
701,44	28,240
701,63	28,656
701,81	29,318
701,99	29,500
702,18	27,994
702,36	28,304
702,54	27,475
702,73	27,982
702,91	29,075
703,09	28,300
703,28	28,953
703,46	28,368
703,64	27,727
703,83	29,154
704,01	30,766
704,19	28,988
704,38	28,406
704,56	29,090
704,74	29,495
704,93	29,178
705,11	29,221
705,29	28,451
705,48	29,951
705,66	28,796
705,84	29,500
706,03	27,963
706,21	28,291
706,39	27,991
706,58	29,135
706,76	27,782
706,94	29,132
707,12	29,232
707,31	29,542
707,49	28,257
707,67	29,388
707,86	29,302
708,04	29,481
708,22	28,651
708,41	27,400
708,59	28,402
708,77	27,504
708,95	30,577
709,14	30,611
709,32	28,179
709,50	28,338
709,69	28,162
709,87	28,806
710,05	28,319
710,23	30,176
710,42	27,479
710,60	27,229
710,78	29,477
710,97	28,861
711,15	28,572
711,33	28,323
711,51	27,667
711,70	28,259
711,88	27,768
712,06	29,861
712,24	28,650
712,43	27,535
712,61	27,932
712,79	28,173
712,97	26,311
713,16	27,983
713,34	28,786
713,52	29,128
713,70	28,067
713,89	27,318
714,07	28,548
714,25	28,381
714,43	29,931
714,62	29,593
714,80	28,603
714,98	27,900
715,16	29,280
715,35	27,813
715,53	28,324
715,71	30,059
715,89	30,949
716,07	28,053
716,26	29,010
716,44	28,956
716,62	28,471
716,80	28,521
716,99	28,970
717,17	27,963
717,35	27,745
717,53	28,776
717,71	28,993
717,90	28,926
718,08	28,999
718,26	28,695
718,44	30,102
718,62	29,990
718,81	29,474
718,99	28,815
719,17	27,809
719,35	29,543
719,53	27,814
719,72	28,274
719,90	30,047
720,08	26,829
720,26	29,014
720,44	28,759
720,62	28,564
720,81	27,480
720,99	29,918
721,17	28,926
721,35	29,552
721,53	29,614
721,72	29,495
721,90	30,993
722,08	27,635
722,26	29,565
722,44	29,481
722,62	29,013
722,81	28,111
722,99	29,406
723,17	28,311
723,35	29,659
723,53	28,784
723,71	30,545
723,89	29,133
724,08	28,062
724,26	28,621
724,44	28,257
724,62	28,169
724,80	27,542
724,98	28,025
725,16	27,959
725,35	29,448
725,53	28,044
725,71	28,437
725,89	30,380
726,07	32,019
726,25	29,136
726,43	30,168
726,61	29,977
726,80	28,837
726,98	28,805
727,16	29,959
727,34	28,742
727,52	29,491
727,70	28,268
727,88	29,326
728,06	29,075
728,25	27,734
728,43	29,513
728,61	28,812
728,79	28,739
728,97	29,245
729,15	29,296
729,33	29,581
729,51	29,451
729,69	29,827
729,87	28,334
730,06	29,518
730,24	28,929
730,42	30,115
730,60	28,829
730,78	29,027
730,96	28,136
731,14	28,493
731,32	28,237
731,50	27,581
731,68	29,182
731,86	28,286
732,04	29,418
732,22	28,455
732,41	29,247
732,59	28,921
732,77	30,202
732,95	30,471
733,13	28,840
733,31	27,949
733,49	25,932
733,67	29,614
733,85	29,360
734,03	31,286
734,21	28,587
734,39	29,139
734,57	30,973
734,75	29,981
734,93	27,218
735,11	29,227
735,29	26,763
735,47	29,173
735,65	28,458
735,84	29,085
736,02	27,729
736,20	30,555
736,38	28,020
736,56	29,139
736,74	28,123
736,92	28,120
737,10	28,942
737,28	31,571
737,46	27,806
737,64	28,558
737,82	27,886
738,00	29,421
738,18	30,694
738,36	25,856
738,54	29,516
738,72	29,978
738,90	30,496
739,08	29,539
739,26	28,700
739,44	28,956
739,62	27,344
739,80	28,723
739,98	29,120
740,16	28,002
740,34	27,931
740,52	30,950
740,70	28,600
740,88	26,855
741,06	27,160
741,24	29,566
741,42	29,996
741,60	28,212
741,78	30,192
741,96	27,730
742,14	29,577
742,32	28,114
742,50	28,675
742,68	30,107
742,86	28,911
743,04	26,940
743,21	29,315
743,39	29,094
743,57	27,985
743,75	29,159
743,93	26,735
744,11	28,684
744,29	28,604
744,47	28,905
744,65	29,350
744,83	30,519
745,01	27,962
745,19	29,392
745,37	28,544
745,55	30,039
745,73	30,005
745,91	29,220
746,09	27,563
746,27	28,658
746,45	27,468
746,62	28,398
746,80	28,112
746,98	28,642
747,16	28,038
747,34	29,103
747,52	29,254
747,70	29,428
747,88	29,586
748,06	28,393
748,24	28,533
748,42	29,381
748,60	28,570
748,78	29,277
748,95	28,170
749,13	30,273
749,31	28,223
749,49	28,231
749,67	29,675
749,85	30,810
750,03	28,831
750,21	29,305
750,39	28,295
750,57	29,052
750,74	29,938
750,92	27,941
751,10	30,293
751,28	28,035
751,46	29,257
751,64	31,653
751,82	29,114
752,00	29,004
752,17	29,786
752,35	27,803
752,53	28,897
752,71	29,018
752,89	28,529
753,07	29,098
753,25	29,998
753,43	27,272
753,60	30,063
753,78	27,838
753,96	28,575
754,14	28,832
754,32	28,945
754,50	29,933
754,68	29,218
754,85	30,674
755,03	30,135
755,21	28,730
755,39	30,155
755,57	28,839
755,75	28,976
755,92	28,755
756,10	28,635
756,28	29,212
756,46	28,004
756,64	29,811
756,82	29,102
756,99	29,047
757,17	29,807
757,35	28,357
757,53	28,229
757,71	29,934
757,89	29,963
758,06	27,712
758,24	29,562
758,42	29,434
758,60	30,274
758,78	28,700
758,95	29,307
759,13	27,732
759,31	26,938
759,49	28,466
759,67	28,609
759,84	28,842
760,02	30,039
760,20	29,023
760,38	27,610
760,56	29,852
760,73	30,049
760,91	30,235
761,09	29,527
761,27	29,970
761,45	27,780
761,62	29,404
761,80	28,441
761,98	30,593
762,16	28,802
762,33	30,223
762,51	30,939
762,69	29,367
762,87	28,693
763,05	28,860
763,22	27,487
763,40	27,910
763,58	28,167
763,76	29,027
763,93	30,388
764,11	30,918
764,29	27,575
764,47	28,662
764,64	29,257
764,82	29,702
765,00	27,266
765,18	26,221
765,35	28,089
765,53	33,149
765,71	28,424
765,89	29,147
766,06	29,823
766,24	30,089
766,42	29,691
766,60	28,990
766,77	28,761
766,95	27,853
767,13	28,080
767,30	29,398
767,48	28,937
767,66	27,923
767,84	28,681
768,01	27,806
768,19	28,448
768,37	27,756
768,54	26,931
768,72	28,990
768,90	28,783
769,08	27,909
769,25	28,538
769,43	29,308
769,61	26,776
769,78	28,177
769,96	30,480
770,14	29,625
770,31	29,150
770,49	28,677
770,67	29,569
770,85	28,500
771,02	27,985
771,20	29,069
771,38	29,675
771,55	30,088
771,73	26,700
771,91	28,389
772,08	28,711
772,26	28,054
772,44	28,166
772,61	27,552
772,79	27,902
772,97	29,414
773,14	24,724
773,32	28,669
773,50	30,040
773,67	28,202
773,85	29,569
774,03	28,751
774,20	30,176
774,38	29,544
774,56	26,777
774,73	27,801
774,91	28,915
775,09	28,160
775,26	27,852
775,44	29,520
775,61	29,407
775,79	31,134
775,97	29,702
776,14	29,690
776,32	27,065
776,50	26,876
776,67	29,449
776,85	28,834
777,03	27,731
777,20	28,238
777,38	29,069
777,55	28,681
777,73	27,461
777,91	27,506
778,08	29,609
778,26	30,630
778,43	29,308
778,61	27,354
778,79	27,639
778,96	28,820
779,14	28,050
779,32	29,130
779,49	30,753
779,67	30,900
779,84	31,057
780,02	30,956
780,20	27,428
780,37	30,494
780,55	27,117
780,72	31,197
780,90	30,551
781,07	29,790
781,25	30,041
781,43	29,136
781,60	29,579
781,78	29,147
781,95	30,159
782,13	28,347
782,30	30,651
782,48	28,174
782,66	28,296
782,83	27,949
783,01	30,121
783,18	29,757
783,36	29,382
783,53	30,746
783,71	29,375
783,89	28,602
784,06	29,621
784,24	29,528
784,41	32,365
784,59	30,543
784,76	30,121
784,94	29,639
785,11	29,396
785,29	30,280
785,46	29,678
785,64	27,957
785,82	27,035
785,99	29,513
786,17	30,740
786,34	29,820
786,52	30,944
786,69	29,486
786,87	28,287
787,04	28,419
787,22	29,860
787,39	30,291
787,57	29,903
787,74	27,035
787,92	32,670
788,09	28,170
788,27	27,818
788,44	31,447
788,62	29,496
788,79	30,438
788,97	29,348
789,14	31,557
789,32	29,400
789,49	31,930
789,67	29,799
789,84	32,526
790,02	29,823
790,19	27,892
790,37	32,788
790,54	31,372
790,72	33,578
790,89	33,596
791,07	32,073
791,24	26,337
791,42	28,407
791,59	27,804
791,77	30,832
791,94	28,633
792,12	28,673
792,29	28,770
792,47	29,884
792,64	31,988
792,81	27,559
792,99	28,694
793,16	30,070
793,34	29,841
793,51	26,970
793,69	30,421
793,86	28,419
794,04	29,207
794,21	31,504
794,39	27,947
794,56	28,588
794,73	29,247
794,91	29,355
795,08	32,470
795,26	31,777
795,43	30,922
795,61	32,129
795,78	31,042
795,95	31,420
796,13	29,251
796,30	30,532
796,48	28,085
796,65	31,611
796,83	28,938
797,00	32,236
797,17	28,820
797,35	30,920
797,52	30,219
797,70	30,232
797,87	27,789
798,04	27,682
798,22	30,102
798,39	30,696
798,57	32,190
798,74	32,644
798,91	27,824
799,09	28,993
799,26	29,142
799,44	30,797
799,61	28,706
799,78	27,835
799,96	32,888
800,13	31,916
800,31	30,530
800,48	28,464
800,65	31,179
800,83	27,191
801,00	30,947
801,17	30,981
801,35	29,564
801,52	29,238
801,70	29,807
801,87	29,430
802,04	31,110
802,22	28,672
802,39	29,871
802,56	33,573
802,74	28,163
802,91	27,748
803,08	27,545
803,26	30,153
803,43	30,351
803,61	28,569
803,78	28,657
803,95	29,505
804,13	29,626
804,30	30,597
804,47	33,366
804,65	29,687
804,82	32,779
804,99	28,437
805,17	33,860
805,34	33,776
805,51	33,754
805,69	31,025
805,86	28,225
806,03	35,149
806,21	27,602
806,38	32,834
806,55	31,433
806,72	30,341
806,90	32,906
807,07	30,203
807,24	28,748
807,42	31,626
807,59	29,570
807,76	27,221
807,94	29,573
808,11	30,969
808,28	32,612
808,45	30,656
808,63	31,956
808,80	32,101
808,97	31,562
809,15	31,846
809,32	31,213
809,49	27,878
809,67	27,340
809,84	28,330
810,01	30,010
810,18	32,806
810,36	28,816
810,53	32,593
810,70	30,774
810,87	35,434
811,05	28,610
811,22	30,149
811,39	28,205
811,57	35,476
811,74	31,812
811,91	30,924
812,08	30,973
812,26	31,472
812,43	28,975
812,60	29,337
812,77	29,158
812,95	31,821
813,12	30,258
813,29	25,109
813,46	31,636
813,64	30,392
813,81	29,401
813,98	28,220
814,15	35,678
814,32	31,045
814,50	33,877
814,67	31,208
814,84	35,957
815,01	29,369
815,19	27,166
815,36	29,285
815,53	28,972
815,70	27,473
815,87	28,889
816,05	34,088
816,22	33,232
816,39	32,078
816,56	33,489
816,74	29,626
816,91	33,109
817,08	34,871
817,25	34,752
817,42	29,390
817,60	32,384
817,77	28,260
817,94	33,431
818,11	32,678
818,28	32,883
818,45	30,362
818,63	33,995
818,80	22,484
818,97	28,931
819,14	38,218
819,31	34,151
819,49	30,742
819,66	31,960
819,83	31,143
820,00	27,689
820,17	33,942
820,34	32,870
820,52	35,696
820,69	34,511
820,86	26,661
821,03	35,206
821,20	32,018
821,37	30,229
821,55	29,256
821,72	30,694
821,89	36,767
822,06	32,989
822,23	29,976
822,40	32,393
822,57	30,712
822,75	35,535
822,92	30,195
823,09	31,620
823,26	34,561
823,43	39,041
823,60	28,748
823,77	31,493
823,94	35,206
824,12	35,176
824,29	31,615
824,46	32,385
824,63	33,831
824,80	32,358
824,97	29,296
825,14	31,183
825,31	31,590
825,49	36,298
825,66	34,208
825,83	29,901
826,00	29,520
826,17	33,789
826,34	31,952
826,51	30,984
826,68	31,783
826,85	32,678
827,02	35,523
827,20	28,630
827,37	30,970
827,54	34,103
827,71	34,923
827,88	36,120
828,05	29,647
828,22	27,699
828,39	29,335
828,56	33,250
828,73	30,569
828,90	35,270
829,07	29,813
829,25	34,474
829,42	35,869
829,59	31,250
829,76	28,404
829,93	33,042
830,10	35,245
830,27	33,700
830,44	35,026
830,61	34,841
830,78	39,906
830,95	26,310
831,12	34,201
831,29	29,976
831,46	30,584
831,63	35,939
831,80	32,986
831,97	35,698
832,14	35,419
832,31	38,435
832,48	30,114
832,65	34,829
832,83	31,676
833,00	33,241
833,17	30,841
833,34	33,494
833,51	34,714
833,68	35,367
833,85	38,579
834,02	27,834
834,19	32,063
834,36	35,135
834,53	31,994
834,70	32,538
834,87	37,854
835,04	31,098
835,21	35,649
835,38	28,413
835,55	34,581
835,72	39,297
835,89	38,877
836,06	35,752
836,23	32,666
836,40	33,536
836,57	35,323
836,74	38,380
836,91	35,753
837,08	36,755
837,25	34,072
837,42	29,550
837,59	39,589
837,76	37,982
837,93	34,998
838,09	34,470
838,26	39,745
838,43	39,761
838,60	37,674
838,77	34,813
838,94	36,530
839,11	38,107
839,28	29,177
839,45	33,119
839,62	38,687
839,79	38,720
839,96	32,311
840,13	38,282
840,30	35,066
840,47	28,071
840,64	18,486
840,81	37,596
840,98	33,646
841,15	30,121
841,32	24,673
841,48	48,515
841,65	36,761
841,82	32,294
841,99	35,184
842,16	32,629
842,33	42,287
842,50	33,365
842,67	39,682
842,84	36,304
843,01	29,849
843,18	34,176
843,35	34,245
843,52	29,779
843,68	37,176
843,85	38,503
844,02	33,863
844,19	39,036
844,36	45,505
844,53	38,291
844,70	37,589
844,87	39,762
845,04	34,560
845,21	31,576
845,37	34,172
845,54	24,774
845,71	19,913
845,88	44,143
846,05	30,398
846,22	32,986
846,39	36,954
846,56	36,073
846,72	25,621
846,89	33,025
847,06	47,207
847,23	25,487
847,40	32,867
847,57	26,027
847,74	33,988
847,90	34,998
848,07	34,306
848,24	40,136
848,41	23,304
848,58	32,388
848,75	35,511
848,92	33,502
849,08	36,437
849,25	36,728
849,42	36,330
849,59	32,255
849,76	30,945
849,93	33,308
850,09	39,515
850,26	24,277
850,43	32,777
850,60	40,076
850,77	30,790
850,94	33,587
851,10	34,394
851,27	28,537
851,44	30,201
851,61	37,495
851,78	42,595
851,95	31,764
852,11	39,509
852,28	54,900
852,45	35,381
852,62	35,255
852,79	35,700
852,95	37,845
853,12	32,412
853,29	38,093
853,46	25,096
853,63	46,921
853,79	35,809
853,96	24,410
854,13	43,865
854,30	27,003
854,46	39,544
854,63	38,820
854,80	33,379
854,97	30,108
855,14	41,757
855,30	44,636
855,47	39,801
855,64	31,305
855,81	38,237
855,97	36,532
856,14	52,965
856,31	29,947
856,48	50,236
856,65	49,374
856,81	37,050
856,98	26,944
857,15	27,094
857,32	36,902
857,48	34,082
857,65	44,266
857,82	35,152
857,99	55,364
858,15	31,116
858,32	37,682
858,49	39,150
858,65	43,035
858,82	46,018
858,99	33,803
859,16	37,711
859,32	42,109
859,49	22,695
859,66	38,687
859,83	41,298
859,99	38,387
860,16	32,162
860,33	34,249
860,49	41,525
860,66	48,006
860,83	45,411
861,00	43,161
861,16	46,135
861,33	36,036
861,50	39,984
861,66	46,493
861,83	53,358
862,00	41,245
862,16	46,242
862,33	38,832
862,50	60,289
862,67	34,044
862,83	36,227
863,00	42,556
863,17	58,048
863,33	51,382
863,50	19,463
863,67	26,614
863,83	50,500
864,00	44,493
864,17	30,743
864,33	39,365
864,50	38,701
864,67	36,951
864,83	39,582
865,00	45,931
865,17	39,582
865,33	36,218
865,50	28,757
865,67	59,148
865,83	43,128
866,00	63,786
866,17	47,042
866,33	47,187
866,50	52,133
866,66	30,998
866,83	33,868
867,00	44,381
867,16	51,149
867,33	41,286
867,50	12,796
867,66	31,947
867,83	46,220
868,00	30,905
868,16	36,596
868,33	23,594
868,49	44,314
868,66	44,758
868,83	35,128
868,99	35,350
869,16	43,259
869,32	50,569
869,49	43,664
869,66	37,721
869,82	54,682
869,99	64,636
870,15	11,309
870,32	49,468
870,49	49,405
870,65	54,999
870,82	54,187
870,98	43,243
871,15	63,009
871,32	39,844
871,48	39,381
871,65	22,491
871,81	35,587
871,98	39,599
872,15	25,473
872,31	17,093
872,48	84,137
872,64	34,402
872,81	30,785
872,97	54,159
873,14	14,416
873,31	33,000
873,47	39,005
873,64	45,199
873,80	43,890
873,97	48,384
874,13	30,116
874,30	33,916
874,46	45,820
874,63	39,744
874,80	37,590
874,96	11,164
875,13	55,354
875,29	53,998
875,46	75,036
875,62	36,938
875,79	48,358
875,95	24,233
876,12	43,006
876,28	43,990
876,45	58,065
876,61	50,210
876,78	11,450
876,94	18,984
877,11	27,161
877,27	34,194
877,44	48,326
877,60	61,995
877,77	63,806
877,94	60,358
878,10	43,326
878,27	75,239
878,43	79,019
878,60	16,632
878,76	68,478
878,93	53,934
879,09	64,487
879,26	50,033
879,42	53,608
879,58	51,408
879,75	56,310
879,91	49,841
880,08	11,254
880,24	27,564
880,41	42,551
880,57	70,562
880,74	41,633
880,90	31,944
881,07	3,629
881,23	-21,973
881,40	48,956
881,56	36,291
881,73	54,255
881,89	34,847
882,06	79,164
882,22	127,634
882,38	103,671
882,55	54,974
882,71	16,968
882,88	24,442
883,04	52,618
883,21	97,204
883,37	23,411
883,54	32,590
883,70	121,626
883,86	62,705
884,03	67,643
884,19	54,574
884,36	12,984
884,52	22,859
884,69	69,407
884,85	12,326
885,01	44,175
885,18	60,432
885,34	-2,662
885,51	22,563
885,67	46,770
>>>>> Data<<<<< Espectral Procesado Extremo
