Fichero De Datos De SpectraSuite
++++++++++++++++++++++++++++++++++++
Fecha: Wed Apr 22 10:25:18 CEST 2009
Usuario: evoflor
Presente Oscuro Del Espectro: Sí
La Referencia de Presente Del Espectro De: Sí
Muestreados de los componentes de Número de espectros: 1
Espectrómetros: USB4F02353
Tiempo de integración (usec): 500000 (USB4F02353)
Promedio de Espectros Hechos un: 5 (USB4F02353)
El Alisar Del Furgón: 0 (USB4F02353)
Párrafo de de Corregir del la del del de Eléctrica del obscuridad: Sí (USB4F02353)
Estrobo/Lámpara Permitido: No (USB4F02353)
Correct for Detector Non-linearity: No (USB4F02353)
Párrafo de de Corregir del la del del de Externa del luz: No (USB4F02353)
Procesado del espectro de Número de pixeles en: 3648
>>>>> Comienza Data<<<<< Espectral Procesado Del EL
177,79	155,825
178,00	155,825
178,22	155,825
178,44	405,000
178,66	222,135
178,88	366,303
179,09	-19,340
179,31	277,122
179,53	418,096
179,75	233,268
179,96	1102,112
180,18	-227,215
180,40	172,118
180,62	236,459
180,83	-297,335
181,05	-143,232
181,27	-5445,000
181,49	170,120
181,70	363,635
181,92	612,411
182,14	132,967
182,36	123,815
182,58	800,550
182,79	470,290
183,01	28,619
183,23	46,803
183,45	-343,523
183,66	374,137
183,88	-370,324
184,10	-868,091
184,32	289,715
184,53	89,805
184,75	17,630
184,97	99,871
185,18	-94,821
185,40	-130,024
185,62	53,311
185,84	92,456
186,05	-32,838
186,27	-18,921
186,49	1559,423
186,71	-7,083
186,92	86,028
187,14	84,229
187,36	62,793
187,58	-12,465
187,79	-83,503
188,01	126,654
188,23	15,213
188,45	99,767
188,66	80,558
188,88	571,909
189,10	413,550
189,31	47,534
189,53	88,768
189,75	88,057
189,97	-55,212
190,18	4,056
190,40	16,147
190,62	-88,526
190,83	-5,340
191,05	-1,359
191,27	66,986
191,49	104,814
191,70	12,764
191,92	175,042
192,14	-73,575
192,35	272,268
192,57	52,714
192,79	-19,176
193,01	136,891
193,22	62,052
193,44	53,677
193,66	59,945
193,87	54,058
194,09	12,682
194,31	58,633
194,53	478,636
194,74	-15,895
194,96	42,641
195,18	70,213
195,39	-201,966
195,61	37,115
195,83	-152,707
196,04	68,339
196,26	-158,518
196,48	-13,522
196,70	-5,278
196,91	-47,462
197,13	-27,228
197,35	-60,632
197,56	462,678
197,78	524,216
198,00	522,692
198,21	292,937
198,43	-57,820
198,65	51,397
198,86	77,860
199,08	-123,787
199,30	171,346
199,51	-0,147
199,73	259,408
199,95	64,715
200,16	173,250
200,38	-31,060
200,60	134,872
200,81	202,452
201,03	61,264
201,25	-1053,450
201,46	65,898
201,68	57,724
201,90	2046,477
202,11	-178,798
202,33	119,650
202,55	-190,687
202,76	89,537
202,98	131,864
203,20	250,745
203,41	-611,289
203,63	24,347
203,85	-17145,000
204,06	100,336
204,28	114,831
204,50	189,702
204,71	60,504
204,93	-129,240
205,15	119,413
205,36	-67,199
205,58	69,184
205,80	90,081
206,01	52,755
206,23	131,357
206,45	172,622
206,66	80,844
206,88	84,630
207,10	83,966
207,31	89,464
207,53	-30,729
207,75	17,279
207,96	403,321
208,18	-153,660
208,39	57,850
208,61	3112,714
208,83	-98,442
209,04	-109,754
209,26	74,447
209,48	254,165
209,69	188,782
209,91	143,057
210,13	-11,976
210,34	-50,012
210,56	103,973
210,77	-220,039
210,99	19,707
211,21	-1956,176
211,42	27,526
211,64	33,282
211,86	64,885
212,07	158,736
212,29	76,144
212,50	78,847
212,72	-107,135
212,94	18,954
213,15	-2,055
213,37	71,531
213,58	153,559
213,80	769,821
214,02	2914,412
214,23	179,097
214,45	-58,869
214,67	-165,183
214,88	39,111
215,10	-166,452
215,31	57,085
215,53	-34,670
215,75	21,991
215,96	738,168
216,18	-709,225
216,39	120,229
216,61	84,596
216,83	52,433
217,04	1345,449
217,26	7,331
217,47	97,236
217,69	64,121
217,91	185,451
218,12	-33345,000
218,34	79,524
218,55	47,865
218,77	37,469
218,99	110,065
219,20	-87,894
219,42	127,660
219,63	-138,262
219,85	-20,035
220,06	72,865
220,28	78,930
220,50	137,731
220,71	53,869
220,93	697,075
221,14	-99,450
221,36	154,790
221,58	104,645
221,79	-63,087
222,01	-185,819
222,22	296,349
222,44	-798,371
222,65	98,213
222,87	-371,014
223,09	95,128
223,30	65,721
223,52	4,434
223,73	-62,218
223,95	-77,261
224,16	-38,876
224,38	213,377
224,60	65,121
224,81	-137,715
225,03	39,697
225,24	81,764
225,46	44,925
225,67	20,330
225,89	-117,742
226,10	217,003
226,32	209,160
226,54	13,283
226,75	-57,747
226,97	42,737
227,18	45,274
227,40	-5,487
227,61	-12,135
227,83	45,723
228,04	-7,432
228,26	-6,308
228,47	50,034
228,69	-46,741
228,91	17,920
229,12	91,065
229,34	28,988
229,55	-25,185
229,77	-14,109
229,98	-12,118
230,20	43,160
230,41	0,625
230,63	-37,891
230,84	-38,787
231,06	-1,989
231,27	12,523
231,49	36,838
231,71	14,058
231,92	27,152
232,14	13,200
232,35	67,913
232,57	14,210
232,78	7,779
233,00	4,352
233,21	11,849
233,43	-5,395
233,64	7,745
233,86	24,231
234,07	-11,372
234,29	7,094
234,50	-12,375
234,72	17,746
234,93	-10,670
235,15	18,672
235,36	26,669
235,58	-8,603
235,79	26,029
236,01	11,941
236,22	3,363
236,44	17,469
236,65	16,077
236,87	4,472
237,08	11,723
237,30	-8,842
237,51	9,708
237,73	-8,191
237,94	-0,527
238,16	18,022
238,37	-2,997
238,59	14,525
238,80	7,916
239,02	-7,153
239,23	3,048
239,45	-7,077
239,66	13,881
239,88	15,013
240,09	9,449
240,31	2,140
240,52	-1,241
240,74	7,898
240,95	-1,146
241,17	4,810
241,38	3,187
241,60	3,231
241,81	13,666
242,03	5,010
242,24	4,996
242,46	15,470
242,67	1,731
242,89	9,576
243,10	14,446
243,32	14,586
243,53	4,295
243,75	8,013
243,96	6,394
244,18	7,646
244,39	2,498
244,60	3,435
244,82	-4,847
245,03	11,974
245,25	-1,150
245,46	10,134
245,68	-3,953
245,89	9,390
246,11	5,041
246,32	7,360
246,54	5,223
246,75	3,533
246,97	2,108
247,18	8,473
247,39	-2,777
247,61	3,023
247,82	3,660
248,04	2,655
248,25	3,780
248,47	7,146
248,68	4,594
248,90	-2,612
249,11	6,708
249,33	8,892
249,54	0,170
249,75	7,584
249,97	-4,087
250,18	1,798
250,40	12,037
250,61	-5,537
250,83	-2,621
251,04	-3,283
251,25	4,201
251,47	-4,726
251,68	3,431
251,90	2,295
252,11	3,164
252,33	2,507
252,54	3,559
252,76	4,519
252,97	1,145
253,18	-1,310
253,40	0,637
253,61	0,477
253,83	8,959
254,04	6,416
254,25	6,063
254,47	3,875
254,68	5,298
254,90	1,378
255,11	4,789
255,33	0,231
255,54	-4,737
255,75	1,121
255,97	4,653
256,18	1,720
256,40	-0,734
256,61	6,311
256,82	-4,260
257,04	6,752
257,25	0,096
257,47	4,364
257,68	-0,292
257,89	4,475
258,11	5,975
258,32	-0,959
258,54	4,611
258,75	5,141
258,96	7,492
259,18	3,728
259,39	3,353
259,61	4,345
259,82	-1,416
260,03	1,786
260,25	1,864
260,46	0,200
260,68	3,755
260,89	1,042
261,10	2,998
261,32	1,615
261,53	4,647
261,75	4,956
261,96	-4,073
262,17	7,264
262,39	2,473
262,60	1,304
262,81	-3,445
263,03	3,069
263,24	3,254
263,46	-0,408
263,67	4,401
263,88	-0,284
264,10	1,860
264,31	-1,367
264,52	4,506
264,74	5,004
264,95	2,392
265,17	1,108
265,38	1,076
265,59	6,827
265,81	3,456
266,02	0,042
266,23	0,577
266,45	8,480
266,66	6,252
266,87	3,956
267,09	1,514
267,30	3,954
267,52	5,978
267,73	1,741
267,94	3,905
268,16	2,502
268,37	1,797
268,58	3,416
268,80	1,709
269,01	1,991
269,22	4,574
269,44	3,711
269,65	1,381
269,86	0,838
270,08	4,209
270,29	-1,588
270,50	5,479
270,72	4,099
270,93	0,493
271,14	3,106
271,36	3,304
271,57	1,736
271,78	0,945
272,00	5,463
272,21	5,673
272,42	3,742
272,64	1,051
272,85	-0,438
273,06	1,817
273,28	0,695
273,49	2,693
273,70	3,260
273,92	2,251
274,13	4,111
274,34	3,731
274,56	1,670
274,77	1,817
274,98	1,738
275,20	3,353
275,41	1,309
275,62	4,416
275,84	4,809
276,05	7,160
276,26	4,938
276,47	-0,387
276,69	0,866
276,90	0,928
277,11	2,506
277,33	0,834
277,54	2,021
277,75	2,819
277,97	1,923
278,18	1,923
278,39	0,388
278,61	2,621
278,82	4,912
279,03	0,681
279,24	0,849
279,46	3,792
279,67	1,708
279,88	3,905
280,10	4,627
280,31	1,945
280,52	9,136
280,73	-1,416
280,95	2,951
281,16	3,909
281,37	3,833
281,59	4,915
281,80	4,611
282,01	3,987
282,22	6,170
282,44	-2,340
282,65	7,314
282,86	4,902
283,08	2,283
283,29	3,009
283,50	1,745
283,71	3,608
283,93	3,665
284,14	8,093
284,35	0,002
284,56	1,526
284,78	1,194
284,99	3,713
285,20	4,501
285,42	1,430
285,63	4,823
285,84	3,448
286,05	-1,246
286,27	1,775
286,48	-0,445
286,69	0,294
286,90	3,372
287,12	2,209
287,33	3,369
287,54	2,575
287,75	2,038
287,97	2,585
288,18	-0,388
288,39	-0,954
288,60	1,061
288,82	5,950
289,03	3,304
289,24	2,333
289,45	2,720
289,67	-0,547
289,88	1,762
290,09	2,382
290,30	1,924
290,52	2,873
290,73	2,720
290,94	1,046
291,15	1,159
291,37	5,411
291,58	1,411
291,79	1,309
292,00	3,545
292,21	3,328
292,43	0,677
292,64	1,733
292,85	0,483
293,06	4,709
293,28	-1,445
293,49	0,371
293,70	2,347
293,91	1,940
294,12	1,293
294,34	0,863
294,55	1,408
294,76	0,975
294,97	2,989
295,19	0,270
295,40	1,388
295,61	2,393
295,82	0,671
296,03	1,098
296,25	1,865
296,46	0,359
296,67	1,337
296,88	-0,530
297,09	4,571
297,31	3,075
297,52	0,860
297,73	2,701
297,94	3,461
298,15	1,517
298,37	4,200
298,58	5,359
298,79	3,652
299,00	1,564
299,21	1,212
299,43	1,509
299,64	5,834
299,85	4,410
300,06	1,817
300,27	1,687
300,49	4,856
300,70	2,771
300,91	0,124
301,12	0,648
301,33	2,639
301,54	0,845
301,76	0,563
301,97	0,935
302,18	3,932
302,39	5,829
302,60	3,998
302,82	0,885
303,03	4,314
303,24	0,889
303,45	1,179
303,66	0,625
303,87	2,779
304,09	6,005
304,30	1,897
304,51	2,282
304,72	2,852
304,93	2,717
305,14	2,813
305,36	1,392
305,57	0,559
305,78	3,957
305,99	2,539
306,20	3,196
306,41	0,733
306,62	2,439
306,84	2,437
307,05	0,882
307,26	1,895
307,47	3,046
307,68	1,823
307,89	1,247
308,11	3,508
308,32	1,677
308,53	4,020
308,74	-0,959
308,95	0,294
309,16	3,042
309,37	4,688
309,59	0,448
309,80	1,164
310,01	2,775
310,22	2,678
310,43	2,405
310,64	1,768
310,85	1,485
311,06	0,966
311,28	3,379
311,49	-0,120
311,70	4,934
311,91	-1,297
312,12	1,328
312,33	2,774
312,54	3,032
312,75	1,039
312,97	4,478
313,18	2,737
313,39	2,849
313,60	3,911
313,81	5,697
314,02	3,975
314,23	1,021
314,44	0,122
314,65	3,071
314,87	1,706
315,08	3,373
315,29	4,112
315,50	2,671
315,71	0,793
315,92	5,404
316,13	2,219
316,34	3,816
316,55	2,983
316,77	-1,739
316,98	2,114
317,19	3,385
317,40	3,770
317,61	3,413
317,82	3,069
318,03	0,562
318,24	2,556
318,45	3,511
318,66	3,258
318,87	0,075
319,09	2,392
319,30	4,070
319,51	5,605
319,72	3,369
319,93	1,273
320,14	3,507
320,35	3,308
320,56	0,125
320,77	1,596
320,98	4,530
321,19	2,189
321,40	3,184
321,62	2,438
321,83	3,995
322,04	0,587
322,25	2,364
322,46	4,108
322,67	1,688
322,88	4,638
323,09	0,615
323,30	2,022
323,51	3,637
323,72	5,421
323,93	1,608
324,14	-0,981
324,35	0,461
324,56	-0,504
324,77	2,228
324,99	1,495
325,20	2,684
325,41	1,496
325,62	3,800
325,83	2,434
326,04	0,215
326,25	4,979
326,46	3,150
326,67	2,509
326,88	3,885
327,09	1,941
327,30	1,389
327,51	1,148
327,72	2,661
327,93	4,188
328,14	2,034
328,35	-0,729
328,56	3,203
328,77	2,758
328,98	4,563
329,19	3,389
329,40	3,951
329,61	2,749
329,82	-0,257
330,04	0,291
330,25	0,737
330,46	3,487
330,67	2,796
330,88	0,314
331,09	1,802
331,30	1,832
331,51	1,457
331,72	0,219
331,93	3,220
332,14	2,393
332,35	5,037
332,56	2,024
332,77	1,395
332,98	1,499
333,19	3,471
333,40	4,444
333,61	1,475
333,82	2,295
334,03	5,446
334,24	2,881
334,45	0,993
334,66	4,168
334,87	1,486
335,08	1,353
335,29	1,486
335,50	1,501
335,71	3,017
335,92	4,287
336,13	4,793
336,34	-1,609
336,55	3,236
336,76	3,663
336,97	2,762
337,18	-0,157
337,39	2,143
337,60	3,038
337,81	1,132
338,02	3,096
338,23	-0,242
338,44	2,969
338,65	5,479
338,86	1,556
339,07	-0,451
339,28	2,044
339,49	2,322
339,70	2,156
339,91	3,088
340,11	2,714
340,32	1,033
340,53	1,716
340,74	0,055
340,95	2,269
341,16	4,611
341,37	2,854
341,58	0,306
341,79	1,292
342,00	1,141
342,21	3,070
342,42	1,308
342,63	2,753
342,84	0,369
343,05	2,930
343,26	3,390
343,47	-0,055
343,68	-0,140
343,89	2,441
344,10	4,829
344,31	3,285
344,52	-1,503
344,73	2,551
344,94	3,996
345,14	2,290
345,35	4,315
345,56	-0,109
345,77	3,312
345,98	3,705
346,19	-0,027
346,40	0,374
346,61	3,206
346,82	3,803
347,03	-0,196
347,24	6,311
347,45	1,290
347,66	4,853
347,87	1,745
348,08	2,860
348,28	0,885
348,49	5,995
348,70	5,308
348,91	2,920
349,12	-0,227
349,33	13,681
349,54	1,256
349,75	4,010
349,96	3,251
350,17	4,576
350,38	0,498
350,59	5,100
350,80	-0,211
351,00	2,450
351,21	4,139
351,42	-0,112
351,63	0,170
351,84	0,546
352,05	0,259
352,26	0,478
352,47	1,666
352,68	2,422
352,89	5,355
353,09	3,844
353,30	2,499
353,51	3,057
353,72	3,917
353,93	6,080
354,14	-0,707
354,35	2,375
354,56	3,386
354,77	1,989
354,98	-0,985
355,18	1,353
355,39	5,216
355,60	3,668
355,81	-0,233
356,02	2,890
356,23	3,014
356,44	1,561
356,65	2,603
356,85	5,499
357,06	3,903
357,27	4,568
357,48	0,721
357,69	0,915
357,90	3,430
358,11	1,191
358,32	1,911
358,52	3,964
358,73	2,749
358,94	1,647
359,15	4,484
359,36	1,211
359,57	0,912
359,78	-0,972
359,98	0,332
360,19	1,658
360,40	0,501
360,61	2,359
360,82	2,603
361,03	5,086
361,24	0,918
361,44	0,727
361,65	2,605
361,86	3,471
362,07	5,750
362,28	2,562
362,49	1,766
362,70	2,045
362,90	2,414
363,11	-0,177
363,32	1,203
363,53	3,345
363,74	0,645
363,95	3,833
364,15	3,154
364,36	4,794
364,57	3,005
364,78	-1,187
364,99	1,027
365,20	3,439
365,40	2,937
365,61	-0,085
365,82	4,423
366,03	1,324
366,24	5,091
366,45	0,843
366,65	4,355
366,86	-0,851
367,07	5,480
367,28	2,559
367,49	4,069
367,69	7,094
367,90	5,226
368,11	3,267
368,32	1,481
368,53	3,256
368,73	4,956
368,94	4,112
369,15	3,477
369,36	7,247
369,57	4,339
369,78	2,843
369,98	4,070
370,19	5,334
370,40	3,679
370,61	1,804
370,82	5,108
371,02	3,700
371,23	4,809
371,44	4,200
371,65	4,778
371,85	6,235
372,06	0,252
372,27	2,927
372,48	2,833
372,69	-0,061
372,89	3,488
373,10	-0,805
373,31	3,982
373,52	4,289
373,73	6,567
373,93	1,834
374,14	2,820
374,35	2,627
374,56	3,379
374,76	3,334
374,97	4,540
375,18	1,290
375,39	3,684
375,60	4,320
375,80	5,474
376,01	2,281
376,22	5,697
376,43	3,338
376,63	1,218
376,84	1,721
377,05	6,243
377,26	2,560
377,46	0,537
377,67	4,460
377,88	2,499
378,09	5,247
378,29	1,010
378,50	4,806
378,71	6,038
378,92	1,691
379,12	3,027
379,33	2,815
379,54	3,551
379,75	2,887
379,95	0,809
380,16	4,809
380,37	3,641
380,58	3,998
380,78	4,268
380,99	3,302
381,20	3,191
381,41	3,881
381,61	4,140
381,82	4,591
382,03	1,865
382,24	3,110
382,44	3,834
382,65	0,522
382,86	4,079
383,06	-1,357
383,27	6,008
383,48	1,653
383,69	4,431
383,89	3,971
384,10	4,283
384,31	3,587
384,51	1,385
384,72	4,178
384,93	-0,820
385,14	5,653
385,34	4,012
385,55	2,064
385,76	0,469
385,96	3,782
386,17	3,599
386,38	4,178
386,59	5,114
386,79	0,133
387,00	4,834
387,21	3,340
387,41	3,774
387,62	1,735
387,83	5,774
388,03	4,577
388,24	0,801
388,45	4,519
388,66	2,894
388,86	3,391
389,07	3,487
389,28	6,812
389,48	6,225
389,69	1,962
389,90	4,492
390,10	8,786
390,31	3,807
390,52	-0,529
390,72	2,808
390,93	4,410
391,14	2,630
391,34	4,870
391,55	3,937
391,76	5,681
391,96	4,111
392,17	4,509
392,38	8,136
392,58	3,030
392,79	4,670
393,00	3,673
393,20	4,784
393,41	5,758
393,62	2,164
393,82	4,250
394,03	1,404
394,24	6,409
394,44	3,251
394,65	5,623
394,86	4,030
395,06	2,851
395,27	5,187
395,48	2,194
395,68	6,750
395,89	8,133
396,10	2,699
396,30	5,290
396,51	2,389
396,72	2,704
396,92	4,017
397,13	3,638
397,34	-0,065
397,54	5,888
397,75	3,574
397,95	3,848
398,16	6,205
398,37	5,925
398,57	6,485
398,78	9,145
398,99	8,386
399,19	4,984
399,40	4,839
399,60	3,036
399,81	4,564
400,02	8,493
400,22	8,435
400,43	7,140
400,64	7,425
400,84	7,402
401,05	2,416
401,25	3,902
401,46	8,039
401,67	4,852
401,87	8,133
402,08	4,142
402,29	3,680
402,49	5,741
402,70	8,026
402,90	4,317
403,11	3,973
403,32	10,724
403,52	7,200
403,73	7,780
403,93	7,962
404,14	7,152
404,35	6,869
404,55	3,983
404,76	6,479
404,96	7,015
405,17	8,947
405,38	10,219
405,58	4,436
405,79	10,102
405,99	7,609
406,20	7,665
406,40	4,374
406,61	9,338
406,82	3,270
407,02	10,660
407,23	9,265
407,43	6,329
407,64	5,465
407,85	9,332
408,05	2,987
408,26	11,450
408,46	8,657
408,67	6,343
408,87	4,635
409,08	8,843
409,29	10,849
409,49	9,411
409,70	11,745
409,90	10,277
410,11	6,152
410,31	9,022
410,52	11,373
410,72	3,993
410,93	10,037
411,14	7,072
411,34	5,739
411,55	9,529
411,75	11,516
411,96	6,248
412,16	9,898
412,37	9,364
412,57	9,225
412,78	6,162
412,99	9,096
413,19	7,837
413,40	11,189
413,60	6,241
413,81	6,771
414,01	11,481
414,22	3,395
414,42	7,529
414,63	4,079
414,83	11,589
415,04	13,097
415,24	9,355
415,45	7,739
415,65	5,174
415,86	4,294
416,07	10,660
416,27	10,626
416,48	7,221
416,68	11,169
416,89	5,171
417,09	9,494
417,30	9,252
417,50	10,637
417,71	9,564
417,91	10,112
418,12	5,244
418,32	7,680
418,53	11,563
418,73	6,391
418,94	7,237
419,14	9,982
419,35	6,891
419,55	7,936
419,76	7,163
419,96	7,379
420,17	8,042
420,37	8,900
420,58	14,509
420,78	9,242
420,99	8,103
421,19	9,040
421,40	7,171
421,60	11,729
421,81	11,147
422,01	10,311
422,22	5,558
422,42	9,728
422,63	5,861
422,83	10,532
423,04	10,243
423,24	12,983
423,45	9,096
423,65	14,628
423,86	9,090
424,06	10,589
424,27	8,429
424,47	10,703
424,67	7,836
424,88	9,607
425,08	14,510
425,29	12,948
425,49	9,633
425,70	5,251
425,90	15,270
426,11	9,330
426,31	9,840
426,52	13,741
426,72	8,021
426,93	7,711
427,13	11,694
427,33	8,626
427,54	12,664
427,74	13,026
427,95	12,463
428,15	7,022
428,36	10,422
428,56	12,609
428,77	13,090
428,97	8,620
429,18	14,517
429,38	10,042
429,58	14,435
429,79	9,999
429,99	10,925
430,20	5,251
430,40	13,886
430,61	6,652
430,81	8,835
431,01	10,315
431,22	10,281
431,42	15,018
431,63	9,096
431,83	9,849
432,04	14,066
432,24	11,589
432,44	9,723
432,65	8,084
432,85	8,279
433,06	13,454
433,26	11,990
433,47	8,559
433,67	11,271
433,87	11,008
434,08	7,072
434,28	13,049
434,49	9,129
434,69	15,650
434,89	7,013
435,10	10,753
435,30	11,229
435,51	6,973
435,71	10,198
435,91	8,435
436,12	11,199
436,32	10,717
436,53	9,135
436,73	11,074
436,93	12,292
437,14	13,396
437,34	8,871
437,55	9,920
437,75	10,354
437,95	11,525
438,16	9,190
438,36	9,279
438,57	6,088
438,77	8,661
438,97	12,530
439,18	13,493
439,38	9,602
439,58	9,405
439,79	12,315
439,99	15,084
440,20	9,632
440,40	9,642
440,60	13,390
440,81	13,600
441,01	12,137
441,21	10,348
441,42	14,231
441,62	13,511
441,83	11,318
442,03	12,105
442,23	13,845
442,44	11,016
442,64	10,245
442,84	10,699
443,05	11,334
443,25	10,561
443,45	12,927
443,66	14,218
443,86	10,868
444,06	9,143
444,27	11,882
444,47	13,024
444,67	8,698
444,88	14,336
445,08	14,056
445,28	11,468
445,49	12,040
445,69	9,566
445,90	12,663
446,10	12,634
446,30	15,930
446,51	12,347
446,71	10,317
446,91	15,328
447,12	15,109
447,32	12,331
447,52	14,636
447,72	13,865
447,93	12,112
448,13	11,545
448,33	14,400
448,54	12,696
448,74	9,208
448,94	14,539
449,15	14,639
449,35	14,157
449,55	12,213
449,76	15,712
449,96	13,823
450,16	14,943
450,37	11,250
450,57	15,354
450,77	10,253
450,98	15,721
451,18	16,657
451,38	12,231
451,58	13,481
451,79	16,889
451,99	15,148
452,19	14,038
452,40	11,685
452,60	8,323
452,80	14,997
453,00	11,802
453,21	17,618
453,41	15,762
453,61	12,714
453,82	13,495
454,02	11,235
454,22	13,930
454,42	16,176
454,63	9,851
454,83	10,836
455,03	12,773
455,24	13,321
455,44	13,669
455,64	16,475
455,84	10,744
456,05	10,724
456,25	12,492
456,45	17,956
456,65	10,434
456,86	15,083
457,06	17,073
457,26	21,298
457,47	15,603
457,67	17,514
457,87	14,162
458,07	11,813
458,28	15,986
458,48	15,236
458,68	14,196
458,88	14,038
459,09	20,010
459,29	16,317
459,49	14,029
459,69	18,792
459,90	19,329
460,10	10,614
460,30	16,440
460,50	14,316
460,71	13,637
460,91	11,916
461,11	13,354
461,31	14,190
461,52	19,312
461,72	14,367
461,92	14,727
462,12	19,760
462,32	11,470
462,53	16,758
462,73	12,439
462,93	18,037
463,13	10,615
463,34	18,923
463,54	17,933
463,74	18,472
463,94	18,162
464,14	19,834
464,35	14,268
464,55	16,639
464,75	17,830
464,95	20,222
465,16	15,064
465,36	17,583
465,56	16,158
465,76	17,410
465,96	17,009
466,17	14,563
466,37	16,104
466,57	17,038
466,77	20,963
466,97	14,922
467,18	18,827
467,38	15,088
467,58	13,062
467,78	18,161
467,98	19,658
468,19	14,936
468,39	20,109
468,59	18,426
468,79	19,614
468,99	16,795
469,19	14,925
469,40	21,264
469,60	17,092
469,80	16,774
470,00	22,075
470,20	17,350
470,41	19,139
470,61	20,990
470,81	15,364
471,01	19,247
471,21	17,850
471,41	16,092
471,62	14,225
471,82	15,840
472,02	15,099
472,22	20,332
472,42	19,413
472,62	19,996
472,83	20,837
473,03	19,770
473,23	17,074
473,43	18,583
473,63	17,720
473,83	18,388
474,03	17,878
474,24	21,071
474,44	19,930
474,64	15,626
474,84	17,581
475,04	20,955
475,24	17,517
475,45	17,298
475,65	19,249
475,85	20,782
476,05	16,321
476,25	20,455
476,45	18,173
476,65	24,450
476,85	20,107
477,06	18,693
477,26	18,672
477,46	18,246
477,66	16,086
477,86	21,524
478,06	18,097
478,26	23,040
478,46	19,489
478,67	21,902
478,87	20,549
479,07	19,178
479,27	19,470
479,47	20,349
479,67	19,033
479,87	21,684
480,07	21,909
480,28	21,429
480,48	19,014
480,68	21,128
480,88	23,216
481,08	21,502
481,28	22,288
481,48	20,845
481,68	21,083
481,88	18,903
482,08	21,256
482,29	21,182
482,49	19,705
482,69	21,272
482,89	22,301
483,09	21,164
483,29	20,324
483,49	21,041
483,69	22,110
483,89	19,733
484,09	18,219
484,29	20,513
484,50	20,374
484,70	20,253
484,90	21,484
485,10	19,352
485,30	21,167
485,50	21,443
485,70	20,595
485,90	21,872
486,10	18,547
486,30	20,814
486,50	20,659
486,70	21,067
486,90	21,123
487,10	22,644
487,30	21,406
487,51	18,911
487,71	20,342
487,91	21,328
488,11	22,262
488,31	19,997
488,51	25,163
488,71	21,877
488,91	23,616
489,11	18,941
489,31	23,261
489,51	21,042
489,71	22,333
489,91	23,027
490,11	19,594
490,31	23,075
490,51	26,134
490,71	21,412
490,91	22,733
491,11	20,852
491,31	23,472
491,51	20,054
491,72	22,457
491,92	21,711
492,12	25,459
492,32	23,453
492,52	25,192
492,72	22,390
492,92	23,088
493,12	23,666
493,32	23,037
493,52	22,461
493,72	24,397
493,92	25,323
494,12	26,549
494,32	25,157
494,52	24,272
494,72	24,693
494,92	24,110
495,12	26,427
495,32	23,494
495,52	22,966
495,72	26,596
495,92	26,845
496,12	27,052
496,32	23,427
496,52	23,691
496,72	22,508
496,92	24,058
497,12	27,150
497,32	24,523
497,52	24,909
497,72	26,521
497,92	26,969
498,12	24,476
498,32	25,278
498,52	25,279
498,72	22,758
498,92	23,286
499,12	26,580
499,32	25,347
499,52	24,646
499,72	25,692
499,92	26,321
500,12	26,890
500,32	27,768
500,52	25,706
500,72	30,754
500,91	28,152
501,11	27,635
501,31	23,306
501,51	26,319
501,71	27,030
501,91	27,559
502,11	26,907
502,31	26,030
502,51	26,144
502,71	26,249
502,91	26,396
503,11	26,272
503,31	27,696
503,51	27,862
503,71	25,765
503,91	28,230
504,11	28,658
504,31	26,771
504,51	28,296
504,71	27,842
504,91	26,941
505,10	26,537
505,30	27,556
505,50	27,036
505,70	26,360
505,90	29,142
506,10	25,443
506,30	27,449
506,50	29,752
506,70	31,520
506,90	25,475
507,10	27,134
507,30	27,040
507,50	30,887
507,70	28,815
507,89	27,989
508,09	25,668
508,29	27,532
508,49	28,442
508,69	26,077
508,89	26,445
509,09	28,267
509,29	27,792
509,49	30,989
509,69	30,372
509,89	29,327
510,09	28,043
510,28	29,893
510,48	28,855
510,68	27,499
510,88	27,120
511,08	27,969
511,28	26,763
511,48	27,206
511,68	27,525
511,88	28,644
512,07	28,953
512,27	29,367
512,47	28,650
512,67	25,590
512,87	27,299
513,07	30,228
513,27	26,817
513,47	27,651
513,67	26,431
513,86	29,963
514,06	25,408
514,26	28,494
514,46	32,457
514,66	28,394
514,86	28,654
515,06	32,790
515,26	30,434
515,45	28,612
515,65	26,468
515,85	28,057
516,05	26,191
516,25	29,722
516,45	27,673
516,65	28,343
516,84	30,199
517,04	32,064
517,24	27,677
517,44	28,339
517,64	30,017
517,84	29,290
518,04	29,596
518,23	28,727
518,43	30,701
518,63	27,447
518,83	28,444
519,03	26,806
519,23	32,727
519,42	28,729
519,62	27,638
519,82	29,102
520,02	29,024
520,22	26,589
520,42	25,570
520,61	27,861
520,81	32,115
521,01	29,905
521,21	28,363
521,41	30,863
521,61	28,715
521,80	26,167
522,00	26,106
522,20	28,934
522,40	28,895
522,60	24,876
522,79	26,960
522,99	30,047
523,19	27,135
523,39	29,797
523,59	28,833
523,78	30,102
523,98	28,480
524,18	28,105
524,38	28,287
524,58	29,709
524,77	30,813
524,97	27,191
525,17	30,901
525,37	31,150
525,57	30,981
525,76	27,406
525,96	28,854
526,16	27,770
526,36	26,767
526,56	27,467
526,75	26,731
526,95	31,159
527,15	28,645
527,35	29,637
527,55	26,877
527,74	30,425
527,94	27,418
528,14	29,026
528,34	28,248
528,53	26,022
528,73	28,108
528,93	29,431
529,13	28,937
529,32	27,745
529,52	28,197
529,72	26,651
529,92	30,065
530,12	32,267
530,31	25,682
530,51	27,992
530,71	31,835
530,91	28,175
531,10	26,785
531,30	27,296
531,50	28,434
531,70	29,366
531,89	29,647
532,09	27,381
532,29	28,476
532,49	29,480
532,68	31,060
532,88	26,475
533,08	24,709
533,28	30,983
533,47	29,004
533,67	30,393
533,87	29,073
534,06	30,610
534,26	29,946
534,46	30,262
534,66	26,864
534,85	29,958
535,05	26,026
535,25	29,495
535,45	28,563
535,64	29,599
535,84	26,485
536,04	27,299
536,23	28,663
536,43	30,029
536,63	26,617
536,83	29,512
537,02	26,988
537,22	27,438
537,42	26,779
537,61	27,713
537,81	29,976
538,01	26,072
538,20	27,824
538,40	27,035
538,60	28,741
538,80	26,410
538,99	27,054
539,19	27,133
539,39	24,614
539,58	26,992
539,78	23,749
539,98	24,701
540,17	23,393
540,37	25,010
540,57	21,475
540,76	22,526
540,96	22,679
541,16	24,640
541,36	22,151
541,55	22,419
541,75	21,528
541,95	21,149
542,14	20,359
542,34	19,314
542,54	20,888
542,73	20,064
542,93	21,700
543,13	19,998
543,32	20,782
543,52	21,251
543,72	19,989
543,91	20,181
544,11	19,376
544,31	19,585
544,50	19,721
544,70	20,365
544,89	20,573
545,09	21,515
545,29	21,168
545,48	21,125
545,68	20,492
545,88	20,347
546,07	22,506
546,27	22,987
546,47	23,095
546,66	24,181
546,86	23,762
547,06	23,054
547,25	22,799
547,45	23,001
547,64	25,557
547,84	25,794
548,04	26,943
548,23	24,540
548,43	26,936
548,63	25,515
548,82	25,601
549,02	23,921
549,21	26,506
549,41	26,186
549,61	27,135
549,80	27,269
550,00	27,205
550,20	26,671
550,39	27,905
550,59	26,729
550,78	25,732
550,98	24,723
551,18	28,343
551,37	26,560
551,57	27,021
551,76	27,171
551,96	26,937
552,16	26,808
552,35	26,609
552,55	28,092
552,74	28,939
552,94	27,839
553,14	26,346
553,33	26,377
553,53	26,244
553,72	27,319
553,92	28,605
554,12	25,279
554,31	27,895
554,51	29,804
554,70	25,424
554,90	29,767
555,09	29,305
555,29	30,230
555,49	28,624
555,68	28,474
555,88	26,975
556,07	25,749
556,27	28,778
556,46	28,721
556,66	26,976
556,86	29,447
557,05	29,666
557,25	26,425
557,44	28,354
557,64	26,786
557,83	28,277
558,03	27,467
558,22	27,505
558,42	27,024
558,62	29,607
558,81	27,524
559,01	26,830
559,20	26,374
559,40	26,861
559,59	28,085
559,79	27,199
559,98	30,352
560,18	27,104
560,37	28,497
560,57	30,498
560,76	28,598
560,96	28,048
561,16	28,864
561,35	28,725
561,55	30,823
561,74	28,887
561,94	28,505
562,13	28,207
562,33	28,037
562,52	28,290
562,72	27,326
562,91	26,906
563,11	29,093
563,30	28,925
563,50	24,283
563,69	28,525
563,89	26,154
564,08	28,587
564,28	27,631
564,47	28,070
564,67	24,478
564,86	28,322
565,06	25,668
565,25	31,564
565,45	29,846
565,64	29,201
565,84	28,134
566,03	28,219
566,23	29,850
566,42	27,546
566,62	27,981
566,81	28,237
567,01	28,518
567,20	29,063
567,40	28,672
567,59	28,148
567,79	29,245
567,98	30,321
568,18	27,932
568,37	30,575
568,57	28,438
568,76	29,822
568,96	29,601
569,15	28,445
569,35	28,846
569,54	30,358
569,73	30,685
569,93	30,600
570,12	29,270
570,32	29,639
570,51	28,780
570,71	30,031
570,90	30,389
571,10	29,880
571,29	28,862
571,49	28,364
571,68	28,823
571,87	27,603
572,07	28,901
572,26	29,327
572,46	27,579
572,65	28,289
572,85	29,503
573,04	29,589
573,24	29,119
573,43	31,454
573,62	29,416
573,82	29,945
574,01	28,994
574,21	28,724
574,40	28,670
574,60	28,181
574,79	29,646
574,98	28,018
575,18	30,581
575,37	28,539
575,57	29,479
575,76	29,063
575,96	28,994
576,15	28,340
576,34	29,245
576,54	28,187
576,73	29,324
576,93	29,283
577,12	29,449
577,31	28,790
577,51	28,309
577,70	26,705
577,90	29,203
578,09	27,481
578,28	28,711
578,48	27,419
578,67	30,399
578,87	27,373
579,06	27,970
579,25	30,310
579,45	28,959
579,64	28,393
579,84	28,371
580,03	26,427
580,22	27,559
580,42	28,755
580,61	27,831
580,81	27,156
581,00	29,756
581,19	29,448
581,39	27,738
581,58	28,181
581,77	29,024
581,97	28,370
582,16	28,391
582,35	27,642
582,55	28,537
582,74	29,050
582,94	29,410
583,13	28,020
583,32	28,864
583,52	28,930
583,71	27,904
583,90	30,235
584,10	27,386
584,29	28,950
584,48	28,849
584,68	28,252
584,87	29,061
585,06	28,256
585,26	27,628
585,45	28,241
585,65	29,415
585,84	27,669
586,03	27,520
586,23	26,429
586,42	27,067
586,61	29,467
586,81	28,121
587,00	27,878
587,19	26,489
587,39	28,906
587,58	27,690
587,77	27,490
587,97	27,618
588,16	27,066
588,35	29,427
588,54	28,778
588,74	27,753
588,93	28,266
589,12	27,636
589,32	28,308
589,51	27,400
589,70	25,644
589,90	26,571
590,09	27,311
590,28	30,086
590,48	28,343
590,67	28,624
590,86	29,151
591,06	28,078
591,25	28,707
591,44	27,455
591,63	27,847
591,83	28,978
592,02	28,676
592,21	27,365
592,41	27,748
592,60	28,530
592,79	28,205
592,98	27,170
593,18	28,095
593,37	28,989
593,56	28,754
593,76	28,535
593,95	28,023
594,14	27,428
594,33	29,546
594,53	28,734
594,72	28,969
594,91	30,342
595,10	29,575
595,30	27,614
595,49	26,589
595,68	28,303
595,88	28,739
596,07	29,134
596,26	28,561
596,45	29,510
596,65	26,825
596,84	27,470
597,03	27,840
597,22	28,937
597,42	31,206
597,61	27,021
597,80	29,769
597,99	29,278
598,19	28,253
598,38	29,031
598,57	27,894
598,76	28,722
598,95	29,923
599,15	28,537
599,34	29,373
599,53	29,870
599,72	29,327
599,92	28,120
600,11	29,750
600,30	28,661
600,49	28,328
600,69	27,804
600,88	30,231
601,07	30,050
601,26	30,735
601,45	29,258
601,65	28,926
601,84	28,540
602,03	29,175
602,22	28,587
602,42	30,435
602,61	28,884
602,80	28,678
602,99	30,318
603,18	26,830
603,38	29,922
603,57	29,256
603,76	28,681
603,95	27,501
604,14	27,567
604,34	28,144
604,53	29,856
604,72	30,245
604,91	29,069
605,10	29,239
605,29	29,630
605,49	29,173
605,68	28,948
605,87	29,310
606,06	29,117
606,25	27,669
606,45	28,425
606,64	27,758
606,83	29,541
607,02	29,119
607,21	28,127
607,40	26,914
607,60	27,928
607,79	27,179
607,98	24,811
608,17	26,115
608,36	27,431
608,55	26,839
608,75	27,019
608,94	25,356
609,13	23,677
609,32	23,854
609,51	23,751
609,70	24,573
609,89	24,525
610,09	25,154
610,28	26,048
610,47	24,658
610,66	23,148
610,85	22,972
611,04	24,626
611,23	24,101
611,43	23,671
611,62	23,107
611,81	23,419
612,00	23,772
612,19	22,511
612,38	24,151
612,57	23,733
612,77	24,877
612,96	23,935
613,15	23,973
613,34	25,776
613,53	25,154
613,72	27,051
613,91	26,154
614,10	24,426
614,29	26,063
614,49	25,367
614,68	26,356
614,87	26,788
615,06	28,937
615,25	27,044
615,44	26,064
615,63	25,661
615,82	24,683
616,01	26,474
616,21	27,132
616,40	26,719
616,59	26,933
616,78	26,671
616,97	27,799
617,16	28,016
617,35	27,514
617,54	27,207
617,73	28,886
617,92	26,508
618,11	28,532
618,31	25,809
618,50	28,526
618,69	27,640
618,88	27,061
619,07	26,983
619,26	25,071
619,45	25,499
619,64	27,046
619,83	25,461
620,02	25,742
620,21	28,591
620,40	28,014
620,59	25,927
620,78	25,976
620,97	26,951
621,17	26,861
621,36	27,037
621,55	28,080
621,74	28,148
621,93	26,337
622,12	26,123
622,31	26,427
622,50	26,455
622,69	28,879
622,88	26,552
623,07	26,961
623,26	26,970
623,45	28,654
623,64	26,049
623,83	25,588
624,02	25,919
624,21	28,121
624,40	27,784
624,59	26,258
624,78	27,244
624,97	27,101
625,16	25,484
625,35	26,154
625,54	26,285
625,73	26,312
625,92	27,312
626,12	27,070
626,31	27,183
626,50	26,825
626,69	26,066
626,88	23,801
627,07	26,039
627,26	27,799
627,45	25,694
627,64	26,551
627,83	26,394
628,02	27,421
628,21	27,640
628,40	26,137
628,59	26,828
628,78	24,837
628,97	25,189
629,16	24,637
629,35	26,946
629,54	28,214
629,73	26,796
629,92	25,089
630,10	25,335
630,29	26,430
630,48	25,299
630,67	25,574
630,86	27,295
631,05	25,653
631,24	26,483
631,43	24,908
631,62	26,950
631,81	25,582
632,00	26,194
632,19	25,368
632,38	25,771
632,57	26,661
632,76	26,839
632,95	27,068
633,14	27,880
633,33	25,706
633,52	27,298
633,71	27,170
633,90	26,898
634,09	27,112
634,28	27,650
634,47	26,029
634,66	28,013
634,85	26,796
635,04	29,389
635,22	26,183
635,41	26,373
635,60	28,218
635,79	27,267
635,98	23,785
636,17	27,432
636,36	26,253
636,55	26,426
636,74	26,276
636,93	27,052
637,12	26,990
637,31	25,421
637,50	25,819
637,69	26,354
637,87	27,913
638,06	26,126
638,25	28,645
638,44	27,642
638,63	25,077
638,82	27,075
639,01	28,728
639,20	25,247
639,39	27,907
639,58	26,044
639,77	25,828
639,95	25,702
640,14	27,576
640,33	25,844
640,52	26,332
640,71	28,109
640,90	26,559
641,09	27,038
641,28	27,197
641,47	27,399
641,66	25,432
641,84	27,228
642,03	26,294
642,22	27,453
642,41	28,020
642,60	26,681
642,79	27,631
642,98	27,391
643,17	26,171
643,35	25,717
643,54	26,598
643,73	28,426
643,92	25,907
644,11	26,361
644,30	26,538
644,49	27,991
644,67	26,356
644,86	25,851
645,05	27,085
645,24	26,826
645,43	28,029
645,62	26,747
645,81	28,540
645,99	27,635
646,18	26,405
646,37	27,204
646,56	26,441
646,75	28,959
646,94	27,886
647,13	26,492
647,31	26,663
647,50	25,996
647,69	25,569
647,88	27,486
648,07	26,887
648,26	28,427
648,44	26,006
648,63	25,282
648,82	27,491
649,01	27,438
649,20	24,316
649,38	25,788
649,57	26,741
649,76	25,777
649,95	28,788
650,14	25,713
650,33	25,567
650,51	27,413
650,70	26,108
650,89	25,349
651,08	27,278
651,27	27,556
651,45	25,705
651,64	25,989
651,83	26,437
652,02	25,140
652,21	26,881
652,39	26,369
652,58	26,468
652,77	25,621
652,96	26,943
653,15	26,978
653,33	28,206
653,52	26,790
653,71	28,536
653,90	27,620
654,09	28,897
654,27	28,124
654,46	29,544
654,65	28,426
654,84	28,957
655,02	28,021
655,21	29,263
655,40	28,955
655,59	28,544
655,77	28,821
655,96	27,478
656,15	27,543
656,34	28,861
656,53	29,071
656,71	28,553
656,90	29,362
657,09	29,756
657,28	28,253
657,46	27,274
657,65	28,881
657,84	27,360
658,03	28,919
658,21	27,086
658,40	26,354
658,59	27,195
658,78	28,304
658,96	27,150
659,15	26,780
659,34	26,287
659,52	25,927
659,71	26,727
659,90	24,196
660,09	25,858
660,27	26,286
660,46	27,915
660,65	23,680
660,84	25,357
661,02	25,715
661,21	27,256
661,40	26,336
661,58	26,763
661,77	25,833
661,96	24,081
662,15	26,117
662,33	25,321
662,52	25,234
662,71	27,579
662,89	25,207
663,08	25,234
663,27	26,148
663,45	26,040
663,64	26,585
663,83	25,022
664,02	25,818
664,20	25,843
664,39	23,943
664,58	26,544
664,76	25,265
664,95	25,057
665,14	24,094
665,32	24,120
665,51	25,929
665,70	25,814
665,88	25,732
666,07	25,827
666,26	27,212
666,44	26,395
666,63	24,267
666,82	26,977
667,00	26,910
667,19	24,513
667,38	25,196
667,56	25,493
667,75	25,152
667,94	26,035
668,12	24,291
668,31	26,157
668,50	25,326
668,68	24,463
668,87	24,987
669,06	25,469
669,24	26,100
669,43	23,394
669,62	24,807
669,80	25,600
669,99	25,290
670,18	26,633
670,36	24,166
670,55	24,974
670,74	25,934
670,92	24,297
671,11	24,452
671,29	25,200
671,48	24,977
671,67	26,589
671,85	26,641
672,04	25,422
672,23	23,433
672,41	25,876
672,60	26,188
672,78	24,570
672,97	26,390
673,16	23,843
673,34	24,974
673,53	26,173
673,71	24,370
673,90	26,690
674,09	24,920
674,27	24,881
674,46	24,005
674,64	25,178
674,83	23,385
675,02	25,282
675,20	24,872
675,39	24,723
675,57	25,123
675,76	23,107
675,95	25,554
676,13	25,948
676,32	25,588
676,50	24,630
676,69	23,587
676,88	25,605
677,06	24,762
677,25	25,806
677,43	26,846
677,62	25,903
677,80	25,974
677,99	25,050
678,18	25,979
678,36	26,382
678,55	24,748
678,73	24,418
678,92	24,595
679,10	25,240
679,29	26,676
679,48	24,436
679,66	23,623
679,85	24,031
680,03	24,749
680,22	25,685
680,40	24,723
680,59	25,545
680,77	26,560
680,96	25,964
681,15	24,829
681,33	27,002
681,52	24,698
681,70	25,331
681,89	26,946
682,07	24,901
682,26	24,437
682,44	25,954
682,63	25,748
682,81	24,677
683,00	26,058
683,18	23,893
683,37	26,379
683,55	25,571
683,74	25,171
683,92	26,967
684,11	24,561
684,29	25,104
684,48	24,817
684,67	25,936
684,85	25,122
685,04	26,227
685,22	24,998
685,41	24,714
685,59	25,267
685,78	25,982
685,96	26,192
686,15	25,770
686,33	25,144
686,52	25,192
686,70	24,060
686,89	26,735
687,07	26,052
687,26	26,255
687,44	26,384
687,62	24,582
687,81	26,050
687,99	24,592
688,18	25,742
688,36	25,750
688,55	25,493
688,73	25,665
688,92	24,769
689,10	26,787
689,29	25,950
689,47	26,093
689,66	25,134
689,84	25,164
690,03	29,036
690,21	25,409
690,40	25,861
690,58	25,883
690,76	24,383
690,95	28,248
691,13	26,227
691,32	26,993
691,50	27,873
691,69	27,259
691,87	25,555
692,06	25,475
692,24	25,241
692,43	26,206
692,61	26,229
692,79	25,425
692,98	25,859
693,16	27,645
693,35	25,882
693,53	27,856
693,72	26,202
693,90	26,705
694,08	25,382
694,27	25,211
694,45	27,337
694,64	29,047
694,82	26,802
695,01	24,181
695,19	26,607
695,37	26,158
695,56	26,535
695,74	26,267
695,93	28,296
696,11	25,767
696,29	26,059
696,48	27,475
696,66	25,679
696,85	26,274
697,03	26,832
697,21	29,218
697,40	25,715
697,58	26,213
697,77	26,043
697,95	28,126
698,13	27,115
698,32	25,271
698,50	26,365
698,69	25,831
698,87	26,964
699,05	26,252
699,24	26,620
699,42	27,144
699,60	24,432
699,79	25,938
699,97	26,962
700,16	24,100
700,34	27,286
700,52	26,733
700,71	26,924
700,89	26,398
701,07	26,567
701,26	27,046
701,44	27,091
701,63	26,534
701,81	25,784
701,99	27,846
702,18	25,250
702,36	23,923
702,54	27,516
702,73	26,558
702,91	25,968
703,09	27,120
703,28	25,973
703,46	26,303
703,64	27,106
703,83	26,418
704,01	25,698
704,19	26,569
704,38	25,285
704,56	25,941
704,74	28,163
704,93	26,439
705,11	26,464
705,29	27,168
705,48	28,216
705,66	25,127
705,84	25,879
706,03	25,482
706,21	27,061
706,39	26,699
706,58	26,143
706,76	25,028
706,94	27,813
707,12	27,406
707,31	24,736
707,49	25,185
707,67	25,409
707,86	26,174
708,04	27,490
708,22	25,996
708,41	26,399
708,59	27,608
708,77	25,516
708,95	26,370
709,14	28,663
709,32	26,304
709,50	25,489
709,69	24,998
709,87	26,461
710,05	27,190
710,23	27,861
710,42	24,639
710,60	25,239
710,78	27,432
710,97	24,830
711,15	25,651
711,33	27,645
711,51	27,083
711,70	26,666
711,88	25,288
712,06	27,120
712,24	25,798
712,43	25,105
712,61	24,617
712,79	25,736
712,97	25,399
713,16	27,077
713,34	25,001
713,52	26,782
713,70	27,086
713,89	27,246
714,07	25,605
714,25	26,021
714,43	27,871
714,62	26,167
714,80	26,879
714,98	25,112
715,16	26,302
715,35	24,471
715,53	26,094
715,71	25,623
715,89	28,040
716,07	25,717
716,26	29,738
716,44	26,004
716,62	27,411
716,80	25,301
716,99	27,414
717,17	25,395
717,35	26,437
717,53	24,871
717,71	25,956
717,90	26,465
718,08	25,782
718,26	25,900
718,44	27,876
718,62	25,365
718,81	25,936
718,99	26,303
719,17	26,012
719,35	26,749
719,53	25,564
719,72	25,120
719,90	27,881
720,08	25,126
720,26	28,461
720,44	24,690
720,62	25,815
720,81	26,970
720,99	29,516
721,17	26,782
721,35	27,956
721,53	27,799
721,72	27,311
721,90	27,645
722,08	25,110
722,26	27,713
722,44	25,506
722,62	26,579
722,81	26,750
722,99	26,076
723,17	25,129
723,35	27,845
723,53	26,860
723,71	25,639
723,89	27,650
724,08	26,899
724,26	26,750
724,44	24,961
724,62	26,474
724,80	26,356
724,98	25,112
725,16	25,758
725,35	25,852
725,53	26,324
725,71	25,724
725,89	26,045
726,07	25,287
726,25	26,748
726,43	27,549
726,61	26,310
726,80	25,974
726,98	26,240
727,16	27,817
727,34	27,847
727,52	28,262
727,70	25,901
727,88	23,554
728,06	25,686
728,25	25,567
728,43	27,368
728,61	26,269
728,79	27,481
728,97	26,577
729,15	26,227
729,33	27,479
729,51	26,072
729,69	27,286
729,87	25,414
730,06	25,085
730,24	26,257
730,42	26,906
730,60	25,838
730,78	28,280
730,96	26,632
731,14	26,396
731,32	26,442
731,50	25,060
731,68	26,208
731,86	26,329
732,04	25,339
732,22	26,091
732,41	29,151
732,59	27,103
732,77	28,897
732,95	27,233
733,13	28,254
733,31	27,211
733,49	25,415
733,67	27,632
733,85	27,523
734,03	27,977
734,21	25,359
734,39	25,955
734,57	27,589
734,75	25,835
734,93	25,813
735,11	26,822
735,29	26,914
735,47	27,868
735,65	26,245
735,84	25,785
736,02	25,802
736,20	27,586
736,38	26,307
736,56	25,480
736,74	25,701
736,92	26,635
737,10	26,872
737,28	26,415
737,46	26,550
737,64	23,934
737,82	25,378
738,00	26,716
738,18	27,680
738,36	25,536
738,54	26,715
738,72	26,040
738,90	27,054
739,08	29,917
739,26	24,528
739,44	26,496
739,62	25,774
739,80	27,741
739,98	28,069
740,16	25,734
740,34	25,861
740,52	29,312
740,70	27,172
740,88	25,700
741,06	25,073
741,24	26,982
741,42	26,371
741,60	25,934
741,78	27,591
741,96	26,137
742,14	25,666
742,32	25,266
742,50	26,537
742,68	26,374
742,86	26,828
743,04	25,226
743,21	26,716
743,39	28,600
743,57	24,024
743,75	26,122
743,93	26,668
744,11	25,264
744,29	25,272
744,47	26,391
744,65	27,134
744,83	26,280
745,01	25,423
745,19	27,878
745,37	27,003
745,55	27,747
745,73	25,923
745,91	27,108
746,09	25,714
746,27	24,077
746,45	24,334
746,62	27,554
746,80	25,495
746,98	27,166
747,16	26,003
747,34	25,572
747,52	25,878
747,70	25,744
747,88	26,007
748,06	26,873
748,24	27,653
748,42	27,068
748,60	25,778
748,78	25,690
748,95	27,160
749,13	27,218
749,31	24,770
749,49	27,890
749,67	27,212
749,85	28,462
750,03	26,544
750,21	24,993
750,39	25,948
750,57	28,036
750,74	26,275
750,92	25,631
751,10	27,801
751,28	23,546
751,46	25,931
751,64	26,690
751,82	26,778
752,00	27,783
752,17	27,520
752,35	24,206
752,53	25,125
752,71	25,334
752,89	27,707
753,07	26,227
753,25	27,180
753,43	24,639
753,60	27,810
753,78	24,943
753,96	27,149
754,14	25,244
754,32	26,609
754,50	27,792
754,68	26,711
754,85	29,268
755,03	26,626
755,21	26,844
755,39	27,940
755,57	26,270
755,75	28,464
755,92	27,161
756,10	26,068
756,28	27,441
756,46	25,706
756,64	25,628
756,82	27,429
756,99	27,316
757,17	25,791
757,35	23,999
757,53	28,643
757,71	28,427
757,89	26,457
758,06	25,756
758,24	26,985
758,42	24,836
758,60	25,756
758,78	27,615
758,95	25,556
759,13	28,446
759,31	25,110
759,49	26,708
759,67	27,171
759,84	27,180
760,02	26,924
760,20	28,412
760,38	26,540
760,56	25,275
760,73	25,721
760,91	27,219
761,09	29,270
761,27	26,867
761,45	27,567
761,62	28,485
761,80	27,421
761,98	26,653
762,16	26,792
762,33	26,286
762,51	27,616
762,69	26,668
762,87	26,496
763,05	25,022
763,22	26,896
763,40	26,570
763,58	25,266
763,76	26,049
763,93	28,333
764,11	27,784
764,29	27,777
764,47	26,580
764,64	26,707
764,82	28,029
765,00	26,178
765,18	24,836
765,35	25,082
765,53	28,774
765,71	27,074
765,89	27,087
766,06	25,404
766,24	26,792
766,42	27,686
766,60	25,964
766,77	24,437
766,95	26,447
767,13	26,765
767,30	25,881
767,48	26,352
767,66	26,924
767,84	25,006
768,01	25,344
768,19	25,698
768,37	24,584
768,54	26,522
768,72	26,821
768,90	25,872
769,08	26,240
769,25	26,720
769,43	24,935
769,61	24,696
769,78	26,659
769,96	28,025
770,14	27,583
770,31	26,761
770,49	27,274
770,67	27,798
770,85	25,079
771,02	27,673
771,20	26,801
771,38	25,799
771,55	26,848
771,73	25,190
771,91	25,879
772,08	28,426
772,26	25,627
772,44	25,501
772,61	26,294
772,79	26,770
772,97	28,202
773,14	24,982
773,32	27,220
773,50	27,156
773,67	26,832
773,85	26,411
774,03	24,728
774,20	25,928
774,38	24,992
774,56	24,859
774,73	25,902
774,91	26,798
775,09	24,860
775,26	26,238
775,44	25,118
775,61	26,506
775,79	25,383
775,97	28,850
776,14	26,164
776,32	26,155
776,50	26,509
776,67	27,815
776,85	28,377
777,03	25,352
777,20	27,791
777,38	26,135
777,55	24,660
777,73	26,062
777,91	27,216
778,08	27,537
778,26	26,769
778,43	28,094
778,61	23,016
778,79	28,214
778,96	22,141
779,14	25,002
779,32	26,976
779,49	25,920
779,67	27,605
779,84	26,583
780,02	25,645
780,20	24,595
780,37	27,362
780,55	24,441
780,72	28,055
780,90	26,936
781,07	25,520
781,25	28,967
781,43	28,016
781,60	27,304
781,78	27,011
781,95	24,807
782,13	26,037
782,30	27,491
782,48	27,514
782,66	26,018
782,83	26,572
783,01	28,418
783,18	27,230
783,36	27,032
783,53	28,215
783,71	26,438
783,89	26,542
784,06	28,693
784,24	26,297
784,41	26,368
784,59	25,375
784,76	27,553
784,94	27,159
785,11	27,468
785,29	27,822
785,46	25,901
785,64	25,873
785,82	26,990
785,99	25,841
786,17	24,637
786,34	24,607
786,52	27,652
786,69	28,058
786,87	26,149
787,04	26,768
787,22	24,718
787,39	27,909
787,57	28,055
787,74	24,404
787,92	28,007
788,09	25,417
788,27	28,004
788,44	27,875
788,62	27,412
788,79	26,237
788,97	26,865
789,14	28,362
789,32	28,554
789,49	27,814
789,67	27,977
789,84	28,142
790,02	26,661
790,19	27,507
790,37	26,908
790,54	28,305
790,72	28,847
790,89	27,925
791,07	27,509
791,24	25,971
791,42	26,178
791,59	26,615
791,77	29,316
791,94	26,636
792,12	26,280
792,29	29,114
792,47	25,959
792,64	28,988
792,81	26,016
792,99	27,451
793,16	28,524
793,34	27,214
793,51	23,122
793,69	28,598
793,86	25,464
794,04	26,302
794,21	29,572
794,39	26,336
794,56	25,346
794,73	27,160
794,91	26,784
795,08	26,648
795,26	28,185
795,43	24,513
795,61	27,928
795,78	30,090
795,95	28,454
796,13	28,922
796,30	27,260
796,48	23,737
796,65	28,366
796,83	30,035
797,00	28,712
797,17	25,093
797,35	25,884
797,52	25,903
797,70	31,047
797,87	27,646
798,04	24,635
798,22	28,248
798,39	26,521
798,57	27,244
798,74	29,860
798,91	25,496
799,09	25,470
799,26	31,464
799,44	29,157
799,61	24,987
799,78	29,201
799,96	29,616
800,13	25,488
800,31	28,853
800,48	29,476
800,65	30,832
800,83	25,532
801,00	25,349
801,17	31,357
801,35	22,387
801,52	25,927
801,70	27,220
801,87	27,272
802,04	28,745
802,22	27,166
802,39	29,130
802,56	31,094
802,74	27,553
802,91	27,237
803,08	26,106
803,26	25,680
803,43	31,803
803,61	27,206
803,78	27,155
803,95	28,340
804,13	28,829
804,30	27,702
804,47	29,496
804,65	26,814
804,82	26,860
804,99	26,009
805,17	28,417
805,34	28,035
805,51	30,440
805,69	23,442
805,86	26,598
806,03	26,545
806,21	24,953
806,38	27,112
806,55	32,236
806,72	27,822
806,90	28,523
807,07	28,554
807,24	27,626
807,42	27,100
807,59	28,208
807,76	25,453
807,94	29,996
808,11	27,876
808,28	30,984
808,45	26,619
808,63	30,862
808,80	24,518
808,97	28,550
809,15	29,798
809,32	27,873
809,49	23,150
809,67	28,129
809,84	32,209
810,01	28,656
810,18	28,494
810,36	28,852
810,53	32,731
810,70	29,743
810,87	28,574
811,05	25,542
811,22	30,186
811,39	29,232
811,57	27,500
811,74	25,647
811,91	23,029
812,08	26,466
812,26	28,512
812,43	25,908
812,60	30,471
812,77	28,929
812,95	27,623
813,12	33,769
813,29	25,843
813,46	25,732
813,64	27,963
813,81	30,033
813,98	25,746
814,15	29,127
814,32	27,494
814,50	30,630
814,67	28,357
814,84	29,213
815,01	29,486
815,19	24,883
815,36	25,697
815,53	30,070
815,70	26,881
815,87	31,253
816,05	30,092
816,22	32,372
816,39	29,791
816,56	29,278
816,74	26,151
816,91	23,754
817,08	31,949
817,25	31,226
817,42	31,105
817,60	30,687
817,77	24,598
817,94	30,433
818,11	29,921
818,28	34,697
818,45	26,134
818,63	24,627
818,80	31,325
818,97	30,069
819,14	34,059
819,31	31,117
819,49	26,221
819,66	28,308
819,83	31,846
820,00	27,083
820,17	25,371
820,34	29,694
820,52	30,506
820,69	27,211
820,86	27,863
821,03	29,818
821,20	29,995
821,37	28,430
821,55	25,722
821,72	29,853
821,89	31,669
822,06	25,559
822,23	25,390
822,40	29,819
822,57	25,759
822,75	34,328
822,92	28,321
823,09	29,070
823,26	36,144
823,43	31,965
823,60	25,565
823,77	31,220
823,94	35,257
824,12	34,313
824,29	29,397
824,46	22,377
824,63	30,387
824,80	28,638
824,97	29,586
825,14	27,347
825,31	30,415
825,49	31,332
825,66	30,740
825,83	29,999
826,00	27,733
826,17	39,171
826,34	29,529
826,51	22,526
826,68	26,578
826,85	29,020
827,02	30,903
827,20	29,755
827,37	28,505
827,54	30,530
827,71	33,789
827,88	27,167
828,05	26,242
828,22	28,926
828,39	35,130
828,56	32,732
828,73	29,792
828,90	28,746
829,07	28,288
829,25	27,926
829,42	29,883
829,59	29,051
829,76	26,990
829,93	21,844
830,10	30,741
830,27	23,303
830,44	30,127
830,61	33,157
830,78	21,231
830,95	32,477
831,12	29,128
831,29	29,865
831,46	28,427
831,63	32,678
831,80	31,543
831,97	32,448
832,14	38,781
832,31	36,832
832,48	29,020
832,65	36,704
832,83	31,069
833,00	27,663
833,17	24,863
833,34	34,143
833,51	28,898
833,68	30,072
833,85	30,276
834,02	29,033
834,19	28,534
834,36	34,516
834,53	23,682
834,70	28,384
834,87	35,307
835,04	29,205
835,21	37,536
835,38	22,038
835,55	31,057
835,72	36,691
835,89	30,723
836,06	27,984
836,23	36,901
836,40	22,469
836,57	21,859
836,74	40,381
836,91	28,510
837,08	33,210
837,25	30,494
837,42	21,395
837,59	29,038
837,76	27,868
837,93	26,233
838,09	27,359
838,26	28,939
838,43	30,806
838,60	28,788
838,77	26,623
838,94	30,928
839,11	39,783
839,28	30,371
839,45	31,540
839,62	27,036
839,79	29,146
839,96	33,340
840,13	29,879
840,30	29,882
840,47	30,739
840,64	29,937
840,81	24,098
840,98	29,884
841,15	33,057
841,32	25,337
841,48	36,583
841,65	37,121
841,82	28,820
841,99	26,920
842,16	27,459
842,33	29,360
842,50	37,884
842,67	33,520
842,84	33,981
843,01	36,829
843,18	28,773
843,35	24,286
843,52	27,600
843,68	37,690
843,85	32,462
844,02	33,864
844,19	32,031
844,36	38,271
844,53	31,323
844,70	35,769
844,87	34,596
845,04	27,329
845,21	27,592
845,37	36,189
845,54	31,545
845,71	18,993
845,88	29,286
846,05	21,575
846,22	26,444
846,39	36,875
846,56	29,516
846,72	26,261
846,89	33,026
847,06	35,447
847,23	41,439
847,40	27,288
847,57	26,384
847,74	29,082
847,90	43,263
848,07	40,366
848,24	31,321
848,41	34,333
848,58	33,627
848,75	27,037
848,92	23,822
849,08	23,322
849,25	29,128
849,42	30,582
849,59	31,013
849,76	27,498
849,93	24,493
850,09	40,502
850,26	23,131
850,43	47,615
850,60	39,120
850,77	33,436
850,94	37,381
851,10	36,076
851,27	33,310
851,44	24,072
851,61	32,974
851,78	28,565
851,95	23,657
852,11	35,040
852,28	31,945
852,45	30,610
852,62	36,544
852,79	32,810
852,95	29,738
853,12	39,329
853,29	27,896
853,46	24,744
853,63	42,141
853,79	37,839
853,96	35,368
854,13	42,176
854,30	22,074
854,46	31,987
854,63	33,837
854,80	24,413
854,97	30,110
855,14	39,901
855,30	30,053
855,47	23,654
855,64	28,689
855,81	24,522
855,97	31,252
856,14	29,326
856,31	25,949
856,48	43,676
856,65	45,792
856,81	23,441
856,98	26,946
857,15	32,360
857,32	36,783
857,48	18,808
857,65	30,603
857,82	25,112
857,99	41,739
858,15	29,308
858,32	29,923
858,49	42,255
858,65	37,368
858,82	35,220
858,99	31,046
859,16	36,777
859,32	36,931
859,49	36,282
859,66	17,022
859,83	35,870
859,99	33,850
860,16	29,401
860,33	28,136
860,49	23,314
860,66	49,305
860,83	36,803
861,00	50,922
861,16	35,154
861,33	47,696
861,50	19,418
861,66	32,564
861,83	45,739
862,00	31,148
862,16	41,910
862,33	28,274
862,50	55,876
862,67	35,396
862,83	40,799
863,00	46,067
863,17	24,020
863,33	36,184
863,50	14,687
863,67	38,825
863,83	33,995
864,00	32,506
864,17	36,639
864,33	38,633
864,50	38,540
864,67	23,350
864,83	44,262
865,00	35,282
865,17	29,000
865,33	44,843
865,50	25,798
865,67	24,535
865,83	44,443
866,00	40,505
866,17	33,349
866,33	36,040
866,50	66,755
866,66	40,510
866,83	24,826
867,00	44,736
867,16	52,851
867,33	39,900
867,50	-0,902
867,66	27,118
867,83	40,315
868,00	37,338
868,16	35,163
868,33	31,825
868,49	44,989
868,66	43,422
868,83	44,485
868,99	36,811
869,16	29,360
869,32	37,163
869,49	36,046
869,66	46,016
869,82	44,981
869,99	64,254
870,15	16,603
870,32	35,561
870,49	33,872
870,65	54,529
870,82	53,752
870,98	21,758
871,15	50,413
871,32	32,270
871,48	19,263
871,65	24,176
871,81	59,534
871,98	41,687
872,15	24,330
872,31	34,758
872,48	30,913
872,64	32,043
872,81	24,027
872,97	31,851
873,14	22,303
873,31	50,688
873,47	35,336
873,64	14,738
873,80	69,671
873,97	32,862
874,13	10,712
874,30	27,380
874,46	37,741
874,63	36,322
874,80	31,515
874,96	5,762
875,13	59,206
875,29	16,457
875,46	63,309
875,62	29,558
875,79	58,921
875,95	12,599
876,12	34,529
876,28	30,317
876,45	50,925
876,61	38,111
876,78	43,431
876,94	32,788
877,11	25,680
877,27	41,764
877,44	31,658
877,60	26,712
877,77	46,776
877,94	62,292
878,10	14,585
878,27	45,482
878,43	48,441
878,60	33,561
878,76	47,086
878,93	40,104
879,09	83,063
879,26	47,445
879,42	20,664
879,58	39,252
879,75	63,924
879,91	64,912
880,08	-25,657
880,24	44,341
880,41	55,162
880,57	61,800
880,74	8,420
880,90	46,688
881,07	43,413
881,23	9,374
881,40	65,787
881,56	57,551
881,73	75,546
881,89	31,613
882,06	-23,514
882,22	90,705
882,38	68,525
882,55	96,318
882,71	52,518
882,88	7,069
883,04	76,904
883,21	121,148
883,37	-19,747
883,54	28,410
883,70	96,302
883,86	56,271
884,03	51,643
884,19	31,541
884,36	2,196
884,52	129,117
884,69	29,388
884,85	56,582
885,01	52,805
885,18	67,892
885,34	66,383
885,51	11,767
885,67	52,576
>>>>> Data<<<<< Espectral Procesado Extremo
