Fichero De Datos De SpectraSuite
++++++++++++++++++++++++++++++++++++
Fecha: Wed Apr 22 10:28:23 CEST 2009
Usuario: evoflor
Presente Oscuro Del Espectro: Sí
La Referencia de Presente Del Espectro De: Sí
Muestreados de los componentes de Número de espectros: 1
Espectrómetros: USB4F02353
Tiempo de integración (usec): 500000 (USB4F02353)
Promedio de Espectros Hechos un: 5 (USB4F02353)
El Alisar Del Furgón: 0 (USB4F02353)
Párrafo de de Corregir del la del del de Eléctrica del obscuridad: Sí (USB4F02353)
Estrobo/Lámpara Permitido: No (USB4F02353)
Correct for Detector Non-linearity: No (USB4F02353)
Párrafo de de Corregir del la del del de Externa del luz: No (USB4F02353)
Procesado del espectro de Número de pixeles en: 3648
>>>>> Comienza Data<<<<< Espectral Procesado Del EL
177,79	145,751
178,00	145,751
178,22	145,751
178,44	689,121
178,66	-37,427
178,88	78,208
179,09	128,979
179,31	200,852
179,53	215,449
179,75	171,657
179,96	211,983
180,18	248,338
180,40	359,204
180,62	311,114
180,83	-125,248
181,05	7,439
181,27	-82190,000
181,49	-145,413
181,70	191,500
181,92	261,878
182,14	301,777
182,36	75,163
182,58	312,100
182,79	720,491
183,01	9,045
183,23	210,074
183,45	10,185
183,66	118,186
183,88	-390,059
184,10	-2492,545
184,32	152,203
184,53	170,795
184,75	13,971
184,97	122,034
185,18	53,590
185,40	-79,279
185,62	-29,092
185,84	69,410
186,05	-114,006
186,27	-12,565
186,49	1949,615
186,71	-32,448
186,92	139,649
187,14	-4,308
187,36	67,776
187,58	110,043
187,79	46,064
188,01	195,193
188,23	52,869
188,45	83,457
188,66	-247,813
188,88	-1772,545
189,10	-1370,900
189,31	57,867
189,53	53,084
189,75	219,523
189,97	-120,038
190,18	-64,421
190,40	599,941
190,62	-0,730
190,83	-121,381
191,05	16,200
191,27	183,400
191,49	178,936
191,70	54,856
191,92	-132,119
192,14	42,105
192,35	432,865
192,57	1216,857
192,79	-72,612
193,01	91,582
193,22	-16,545
193,44	34,829
193,66	61,441
193,87	201,049
194,09	48,651
194,31	156,911
194,53	-243,427
194,74	-92,435
194,96	108,555
195,18	120,426
195,39	-91,003
195,61	-51,459
195,83	-108,239
196,04	58,915
196,26	39,246
196,48	49,015
196,70	64,990
196,91	7,340
197,13	246,810
197,35	-29,865
197,56	310,186
197,78	472,313
198,00	310,420
198,21	158,689
198,43	197,151
198,65	167,398
198,86	52,842
199,08	-28,557
199,30	31,559
199,51	-59,577
199,73	208,402
199,95	270,272
200,16	509,962
200,38	97,880
200,60	-2,154
200,81	168,287
201,03	3,234
201,25	-1055,900
201,46	145,161
201,68	55,410
201,90	-197,955
202,11	-135,076
202,33	79,695
202,55	397,375
202,76	19,233
202,98	138,990
203,20	-187,452
203,41	-162,579
203,63	26,555
203,85	-81290,000
204,06	-49,443
204,28	-7,205
204,50	153,941
204,71	107,049
204,93	-552,080
205,15	98,464
205,36	30,421
205,58	-46,084
205,80	-101,950
206,01	108,735
206,23	90,738
206,45	151,285
206,66	70,667
206,88	2,538
207,10	154,068
207,31	168,464
207,53	270,829
207,75	109,079
207,96	747,687
208,18	-138,720
208,39	50,906
208,61	3094,000
208,83	-230,979
209,04	31,456
209,26	-80,138
209,48	95,408
209,69	-27,113
209,91	356,723
210,13	-1,119
210,34	164,140
210,56	93,405
210,77	-618,819
210,99	16,375
211,21	6846,471
211,42	6,146
211,64	-2,571
211,86	156,612
212,07	192,905
212,29	94,568
212,50	60,775
212,72	181,115
212,94	148,415
213,15	68,841
213,37	78,897
213,58	-104,412
213,80	-2163,929
214,02	8434,706
214,23	44,872
214,45	245,869
214,67	-1155,976
214,88	316,141
215,10	-182,729
215,31	-125,131
215,53	-23,886
215,75	-5,757
215,96	236,584
216,18	-224,085
216,39	125,577
216,61	118,537
216,83	419,152
217,04	963,933
217,26	54,177
217,47	78,712
217,69	185,528
217,91	22,448
218,12	21310,000
218,34	25,103
218,55	115,358
218,77	25,561
218,99	116,623
219,20	-0,388
219,42	247,393
219,63	20,490
219,85	-44,092
220,06	-57,731
220,28	130,905
220,50	62,946
220,71	83,044
220,93	2145,094
221,14	-488,900
221,36	16,654
221,58	86,200
221,79	11,598
222,01	-36,293
222,22	268,355
222,44	286,404
222,65	75,151
222,87	492,937
223,09	80,380
223,30	69,062
223,52	120,576
223,73	150,597
223,95	-51,563
224,16	30,289
224,38	-59,028
224,60	28,919
224,81	-1,415
225,03	64,747
225,24	33,367
225,46	22,907
225,67	-13,771
225,89	18,050
226,10	182,500
226,32	-19,280
226,54	50,278
226,75	-5,860
226,97	54,384
227,18	46,832
227,40	22,998
227,61	41,087
227,83	-6,754
228,04	65,967
228,26	49,561
228,47	27,998
228,69	17,763
228,91	89,662
229,12	41,528
229,34	24,802
229,55	24,554
229,77	-7,132
229,98	12,785
230,20	13,412
230,41	28,187
230,63	11,229
230,84	-0,585
231,06	15,799
231,27	-14,226
231,49	13,600
231,71	40,480
231,92	17,401
232,14	7,047
232,35	-0,749
232,57	16,035
232,78	15,624
233,00	8,423
233,21	28,269
233,43	-12,455
233,64	33,257
233,86	21,933
234,07	-10,485
234,29	7,633
234,50	11,527
234,72	32,972
234,93	-3,220
235,15	23,070
235,36	11,148
235,58	-3,264
235,79	-1,048
236,01	31,817
236,22	15,709
236,44	26,839
236,65	29,730
236,87	7,787
237,08	0,189
237,30	-10,919
237,51	13,249
237,73	-10,750
237,94	5,117
238,16	6,099
238,37	5,265
238,59	9,184
238,80	5,654
239,02	-2,560
239,23	8,556
239,45	-11,684
239,66	3,733
239,88	19,643
240,09	10,608
240,31	2,916
240,52	6,066
240,74	0,575
240,95	-5,197
241,17	10,735
241,38	-4,309
241,60	12,366
241,81	13,777
242,03	2,811
242,24	5,582
242,46	7,385
242,67	3,558
242,89	6,917
243,10	12,434
243,32	5,482
243,53	11,980
243,75	6,857
243,96	4,110
244,18	6,356
244,39	8,095
244,60	7,866
244,82	-3,394
245,03	6,147
245,25	2,403
245,46	11,522
245,68	1,727
245,89	2,987
246,11	6,268
246,32	9,962
246,54	4,859
246,75	1,816
246,97	7,914
247,18	8,974
247,39	-2,191
247,61	1,167
247,82	6,404
248,04	6,903
248,25	14,111
248,47	9,466
248,68	10,859
248,90	-2,833
249,11	8,254
249,33	6,735
249,54	3,143
249,75	4,555
249,97	2,726
250,18	7,884
250,40	12,647
250,61	-6,949
250,83	2,791
251,04	-9,262
251,25	3,889
251,47	5,650
251,68	10,777
251,90	4,650
252,11	5,780
252,33	1,364
252,54	4,788
252,76	2,457
252,97	2,968
253,18	-0,130
253,40	5,626
253,61	0,110
253,83	5,584
254,04	4,080
254,25	4,221
254,47	4,070
254,68	2,397
254,90	2,944
255,11	5,356
255,33	3,714
255,54	1,282
255,75	1,491
255,97	2,273
256,18	3,141
256,40	6,964
256,61	12,203
256,82	-1,314
257,04	5,216
257,25	-6,937
257,47	5,199
257,68	-0,701
257,89	8,264
258,11	6,352
258,32	1,393
258,54	9,105
258,75	5,827
258,96	10,549
259,18	2,131
259,39	0,400
259,61	4,231
259,82	5,060
260,03	4,848
260,25	4,505
260,46	2,630
260,68	0,389
260,89	4,453
261,10	-0,068
261,32	4,529
261,53	3,643
261,75	3,049
261,96	-2,274
262,17	6,770
262,39	7,180
262,60	4,000
262,81	-2,561
263,03	7,460
263,24	2,116
263,46	-0,889
263,67	0,548
263,88	0,258
264,10	5,777
264,31	1,258
264,52	6,788
264,74	5,244
264,95	1,568
265,17	7,164
265,38	-0,146
265,59	5,304
265,81	5,756
266,02	0,371
266,23	3,580
266,45	5,793
266,66	7,048
266,87	6,405
267,09	4,548
267,30	2,063
267,52	2,364
267,73	1,714
267,94	4,585
268,16	4,079
268,37	6,386
268,58	1,645
268,80	4,499
269,01	1,351
269,22	6,084
269,44	4,776
269,65	0,127
269,86	1,533
270,08	3,967
270,29	3,532
270,50	6,251
270,72	2,396
270,93	-0,101
271,14	0,414
271,36	4,524
271,57	3,858
271,78	2,351
272,00	2,777
272,21	3,465
272,42	5,168
272,64	4,099
272,85	5,034
273,06	3,491
273,28	5,180
273,49	4,425
273,70	6,134
273,92	4,265
274,13	7,532
274,34	5,570
274,56	3,311
274,77	1,898
274,98	2,125
275,20	1,438
275,41	6,511
275,62	5,295
275,84	6,468
276,05	5,104
276,26	2,339
276,47	2,310
276,69	4,297
276,90	2,649
277,11	-0,093
277,33	3,064
277,54	3,875
277,75	3,446
277,97	2,824
278,18	4,114
278,39	2,401
278,61	2,490
278,82	3,046
279,03	3,374
279,24	2,260
279,46	0,942
279,67	4,374
279,88	3,409
280,10	6,156
280,31	0,237
280,52	3,329
280,73	0,373
280,95	2,055
281,16	6,967
281,37	4,065
281,59	4,342
281,80	4,993
282,01	3,795
282,22	3,468
282,44	3,270
282,65	7,038
282,86	7,160
283,08	4,665
283,29	5,592
283,50	6,186
283,71	5,786
283,93	4,707
284,14	7,550
284,35	-0,084
284,56	3,338
284,78	2,976
284,99	4,898
285,20	5,522
285,42	4,082
285,63	1,298
285,84	1,918
286,05	3,265
286,27	3,214
286,48	1,170
286,69	1,471
286,90	1,811
287,12	3,421
287,33	3,773
287,54	2,959
287,75	1,043
287,97	5,014
288,18	2,208
288,39	3,483
288,60	2,672
288,82	5,394
289,03	2,590
289,24	3,723
289,45	4,512
289,67	1,735
289,88	2,849
290,09	5,083
290,30	2,392
290,52	4,613
290,73	5,527
290,94	3,499
291,15	3,025
291,37	5,122
291,58	4,211
291,79	2,838
292,00	3,526
292,21	3,413
292,43	0,090
292,64	0,559
292,85	1,267
293,06	3,394
293,28	2,506
293,49	1,038
293,70	4,416
293,91	2,154
294,12	4,270
294,34	4,084
294,55	2,477
294,76	2,167
294,97	2,972
295,19	0,733
295,40	4,341
295,61	2,425
295,82	1,684
296,03	2,534
296,25	3,275
296,46	2,079
296,67	1,142
296,88	1,198
297,09	4,062
297,31	2,675
297,52	4,351
297,73	1,505
297,94	2,878
298,15	2,319
298,37	2,741
298,58	4,340
298,79	5,089
299,00	3,109
299,21	3,085
299,43	0,008
299,64	5,792
299,85	5,445
300,06	2,437
300,27	1,157
300,49	5,839
300,70	1,820
300,91	1,577
301,12	1,823
301,33	3,012
301,54	4,327
301,76	3,816
301,97	4,654
302,18	5,555
302,39	5,344
302,60	4,675
302,82	3,618
303,03	4,320
303,24	1,832
303,45	3,205
303,66	1,555
303,87	2,173
304,09	5,676
304,30	2,146
304,51	1,953
304,72	2,906
304,93	3,440
305,14	3,368
305,36	0,642
305,57	0,614
305,78	3,085
305,99	3,298
306,20	2,203
306,41	1,228
306,62	1,998
306,84	1,272
307,05	1,011
307,26	1,854
307,47	3,494
307,68	3,604
307,89	2,938
308,11	5,150
308,32	3,114
308,53	5,715
308,74	2,101
308,95	2,493
309,16	3,501
309,37	5,688
309,59	1,695
309,80	4,387
310,01	3,192
310,22	4,942
310,43	4,367
310,64	3,493
310,85	3,950
311,06	4,187
311,28	4,371
311,49	5,212
311,70	6,560
311,91	1,499
312,12	3,396
312,33	5,003
312,54	5,424
312,75	2,373
312,97	0,082
313,18	3,155
313,39	1,639
313,60	4,110
313,81	3,498
314,02	2,657
314,23	4,334
314,44	2,707
314,65	4,166
314,87	2,666
315,08	2,650
315,29	6,691
315,50	4,532
315,71	3,942
315,92	4,583
316,13	4,538
316,34	3,315
316,55	5,311
316,77	0,134
316,98	3,015
317,19	4,019
317,40	4,169
317,61	5,628
317,82	3,986
318,03	-0,041
318,24	2,764
318,45	4,632
318,66	4,382
318,87	2,207
319,09	5,441
319,30	3,258
319,51	3,719
319,72	4,416
319,93	5,569
320,14	5,886
320,35	3,187
320,56	1,373
320,77	0,117
320,98	6,114
321,19	4,666
321,40	3,294
321,62	4,674
321,83	2,865
322,04	5,969
322,25	0,680
322,46	6,898
322,67	3,762
322,88	3,681
323,09	2,910
323,30	4,338
323,51	4,013
323,72	5,302
323,93	1,411
324,14	2,181
324,35	-0,043
324,56	-0,068
324,77	3,605
324,99	2,800
325,20	0,919
325,41	2,072
325,62	4,315
325,83	2,370
326,04	2,219
326,25	3,980
326,46	0,853
326,67	4,649
326,88	3,541
327,09	0,487
327,30	1,515
327,51	3,620
327,72	4,584
327,93	3,684
328,14	2,581
328,35	2,780
328,56	3,960
328,77	4,775
328,98	2,188
329,19	2,641
329,40	5,010
329,61	3,991
329,82	0,421
330,04	1,142
330,25	0,508
330,46	3,342
330,67	0,164
330,88	2,696
331,09	3,345
331,30	2,529
331,51	5,064
331,72	3,349
331,93	1,776
332,14	2,580
332,35	4,154
332,56	2,351
332,77	2,796
332,98	2,005
333,19	4,030
333,40	3,605
333,61	1,271
333,82	3,513
334,03	3,425
334,24	2,443
334,45	1,590
334,66	1,949
334,87	3,031
335,08	2,791
335,29	2,606
335,50	0,651
335,71	0,612
335,92	2,337
336,13	4,984
336,34	0,492
336,55	6,583
336,76	2,184
336,97	5,113
337,18	1,406
337,39	2,934
337,60	4,234
337,81	0,340
338,02	2,939
338,23	2,960
338,44	4,289
338,65	4,275
338,86	1,402
339,07	1,632
339,28	5,195
339,49	2,665
339,70	-0,159
339,91	3,728
340,11	6,912
340,32	1,827
340,53	0,330
340,74	1,132
340,95	1,184
341,16	3,971
341,37	0,661
341,58	1,891
341,79	1,739
342,00	6,225
342,21	2,605
342,42	3,655
342,63	1,017
342,84	2,415
343,05	3,344
343,26	3,691
343,47	2,832
343,68	-1,288
343,89	3,079
344,10	5,962
344,31	6,165
344,52	2,739
344,73	2,753
344,94	2,811
345,14	2,270
345,35	4,141
345,56	6,832
345,77	1,496
345,98	2,862
346,19	2,658
346,40	4,736
346,61	5,192
346,82	4,571
347,03	0,769
347,24	6,403
347,45	0,681
347,66	6,523
347,87	2,305
348,08	1,311
348,28	3,203
348,49	6,455
348,70	3,906
348,91	4,158
349,12	-0,219
349,33	14,038
349,54	4,163
349,75	5,707
349,96	5,798
350,17	2,325
350,38	2,933
350,59	5,456
350,80	2,163
351,00	4,589
351,21	6,567
351,42	1,572
351,63	3,108
351,84	1,251
352,05	4,065
352,26	3,203
352,47	1,615
352,68	4,766
352,89	6,556
353,09	5,046
353,30	3,591
353,51	2,886
353,72	3,536
353,93	5,153
354,14	-0,915
354,35	1,182
354,56	4,153
354,77	4,704
354,98	0,219
355,18	5,652
355,39	5,280
355,60	2,781
355,81	2,180
356,02	2,687
356,23	4,036
356,44	1,839
356,65	3,897
356,85	8,723
357,06	5,489
357,27	6,431
357,48	4,088
357,69	1,837
357,90	3,681
358,11	3,550
358,32	4,395
358,52	6,731
358,73	3,466
358,94	1,955
359,15	5,395
359,36	3,469
359,57	2,103
359,78	5,001
359,98	1,271
360,19	1,275
360,40	3,270
360,61	2,625
360,82	2,611
361,03	5,005
361,24	2,760
361,44	4,003
361,65	2,735
361,86	1,238
362,07	3,637
362,28	3,910
362,49	2,322
362,70	2,142
362,90	7,702
363,11	3,124
363,32	2,537
363,53	5,112
363,74	6,208
363,95	4,049
364,15	1,571
364,36	5,913
364,57	4,416
364,78	1,525
364,99	2,705
365,20	2,854
365,40	5,109
365,61	1,802
365,82	4,075
366,03	0,040
366,24	2,670
366,45	2,649
366,65	3,627
366,86	2,264
367,07	4,465
367,28	1,302
367,49	6,898
367,69	8,103
367,90	2,821
368,11	5,194
368,32	4,762
368,53	4,803
368,73	4,759
368,94	4,060
369,15	1,077
369,36	7,824
369,57	5,708
369,78	3,538
369,98	7,394
370,19	4,844
370,40	3,320
370,61	3,024
370,82	2,472
371,02	5,324
371,23	9,219
371,44	3,798
371,65	6,348
371,85	4,775
372,06	3,229
372,27	2,781
372,48	4,089
372,69	0,198
372,89	2,780
373,10	2,558
373,31	1,434
373,52	5,324
373,73	5,863
373,93	4,164
374,14	-0,053
374,35	11,121
374,56	5,851
374,76	3,342
374,97	1,732
375,18	-0,807
375,39	6,477
375,60	3,014
375,80	5,856
376,01	2,228
376,22	3,074
376,43	3,614
376,63	2,778
376,84	3,730
377,05	5,254
377,26	3,464
377,46	-1,628
377,67	2,865
377,88	5,769
378,09	2,403
378,29	-1,030
378,50	4,191
378,71	3,923
378,92	2,213
379,12	3,351
379,33	1,274
379,54	3,559
379,75	5,562
379,95	1,967
380,16	6,103
380,37	6,613
380,58	2,508
380,78	3,934
380,99	3,723
381,20	1,847
381,41	5,416
381,61	6,403
381,82	2,385
382,03	1,874
382,24	5,938
382,44	4,318
382,65	4,482
382,86	2,464
383,06	0,276
383,27	2,767
383,48	-0,054
383,69	6,286
383,89	5,292
384,10	6,232
384,31	2,050
384,51	5,347
384,72	3,676
384,93	1,819
385,14	4,428
385,34	4,887
385,55	5,412
385,76	2,515
385,96	0,527
386,17	0,506
386,38	4,154
386,59	5,025
386,79	1,323
387,00	5,691
387,21	5,752
387,41	3,048
387,62	4,785
387,83	6,320
388,03	5,305
388,24	1,177
388,45	3,842
388,66	2,701
388,86	3,669
389,07	2,177
389,28	6,991
389,48	5,191
389,69	2,560
389,90	2,272
390,10	8,508
390,31	5,671
390,52	-1,251
390,72	1,838
390,93	0,872
391,14	2,931
391,34	2,445
391,55	9,152
391,76	5,913
391,96	2,862
392,17	4,166
392,38	6,826
392,58	4,360
392,79	2,972
393,00	0,211
393,20	2,757
393,41	4,155
393,62	3,483
393,82	6,682
394,03	3,983
394,24	3,999
394,44	6,164
394,65	5,402
394,86	3,169
395,06	4,302
395,27	1,930
395,48	5,003
395,68	5,955
395,89	4,825
396,10	4,203
396,30	1,309
396,51	2,667
396,72	5,192
396,92	3,621
397,13	4,004
397,34	-3,087
397,54	4,821
397,75	1,781
397,95	2,097
398,16	5,406
398,37	5,494
398,57	4,169
398,78	6,455
398,99	6,483
399,19	3,616
399,40	2,396
399,60	2,145
399,81	2,515
400,02	3,010
400,22	5,781
400,43	3,264
400,64	5,603
400,84	6,307
401,05	5,149
401,25	6,032
401,46	6,624
401,67	1,639
401,87	4,093
402,08	0,276
402,29	1,748
402,49	4,535
402,70	3,889
402,90	3,553
403,11	4,051
403,32	5,756
403,52	4,078
403,73	7,592
403,93	6,069
404,14	6,352
404,35	3,774
404,55	1,257
404,76	1,759
404,96	5,170
405,17	6,859
405,38	8,893
405,58	4,341
405,79	3,632
405,99	4,736
406,20	4,835
406,40	1,996
406,61	5,855
406,82	3,679
407,02	7,346
407,23	4,924
407,43	3,069
407,64	3,196
407,85	5,582
408,05	3,313
408,26	9,391
408,46	5,565
408,67	3,788
408,87	3,540
409,08	5,330
409,29	5,844
409,49	6,342
409,70	7,016
409,90	6,107
410,11	4,313
410,31	7,166
410,52	5,732
410,72	1,318
410,93	10,046
411,14	6,353
411,34	2,235
411,55	8,416
411,75	6,725
411,96	5,401
412,16	7,433
412,37	7,725
412,57	3,121
412,78	5,467
412,99	7,452
413,19	6,919
413,40	5,839
413,60	7,701
413,81	4,582
414,01	6,068
414,22	4,536
414,42	5,018
414,63	5,297
414,83	7,666
415,04	9,948
415,24	6,851
415,45	6,545
415,65	4,341
415,86	4,812
416,07	6,771
416,27	7,409
416,48	9,862
416,68	7,456
416,89	5,364
417,09	9,319
417,30	9,035
417,50	6,466
417,71	10,414
417,91	8,254
418,12	9,529
418,32	7,219
418,53	8,750
418,73	4,758
418,94	4,940
419,14	9,216
419,35	5,378
419,55	7,696
419,76	10,327
419,96	4,990
420,17	8,500
420,37	7,881
420,58	12,167
420,78	6,996
420,99	11,070
421,19	11,744
421,40	11,395
421,60	10,731
421,81	6,725
422,01	7,743
422,22	9,367
422,42	10,062
422,63	9,546
422,83	10,472
423,04	9,667
423,24	14,709
423,45	11,280
423,65	12,671
423,86	10,244
424,06	11,612
424,27	11,012
424,47	9,520
424,67	6,189
424,88	10,849
425,08	13,143
425,29	14,687
425,49	10,987
425,70	5,300
425,90	14,589
426,11	13,969
426,31	11,544
426,52	14,717
426,72	9,473
426,93	11,067
427,13	13,606
427,33	11,674
427,54	12,953
427,74	14,831
427,95	15,450
428,15	10,369
428,36	9,860
428,56	11,501
428,77	15,187
428,97	10,860
429,18	14,313
429,38	11,663
429,58	15,233
429,79	12,669
429,99	16,154
430,20	11,786
430,40	14,410
430,61	11,458
430,81	11,581
431,01	14,690
431,22	13,143
431,42	17,796
431,63	11,319
431,83	13,442
432,04	10,895
432,24	17,849
432,44	10,899
432,65	10,556
432,85	10,468
433,06	17,387
433,26	11,999
433,47	11,387
433,67	12,277
433,87	15,197
434,08	12,319
434,28	16,451
434,49	12,449
434,69	16,634
434,89	11,674
435,10	15,592
435,30	13,671
435,51	9,873
435,71	11,397
435,91	12,461
436,12	12,523
436,32	11,689
436,53	11,494
436,73	12,077
436,93	15,322
437,14	11,768
437,34	16,529
437,55	16,872
437,75	13,312
437,95	15,352
438,16	15,076
438,36	12,047
438,57	15,318
438,77	17,540
438,97	19,620
439,18	17,143
439,38	17,830
439,58	14,577
439,79	17,733
439,99	18,713
440,20	16,636
440,40	17,510
440,60	15,211
440,81	18,462
441,01	18,828
441,21	16,994
441,42	16,300
441,62	15,779
441,83	15,400
442,03	14,682
442,23	15,766
442,44	16,312
442,64	14,293
442,84	15,622
443,05	19,311
443,25	15,096
443,45	16,593
443,66	16,987
443,86	12,254
444,06	18,952
444,27	19,019
444,47	17,528
444,67	12,943
444,88	19,471
445,08	14,499
445,28	19,332
445,49	14,443
445,69	18,406
445,90	20,047
446,10	16,685
446,30	19,607
446,51	16,092
446,71	19,088
446,91	20,471
447,12	22,378
447,32	15,585
447,52	15,263
447,72	17,322
447,93	17,871
448,13	16,195
448,33	23,640
448,54	14,796
448,74	15,344
448,94	21,387
449,15	18,986
449,35	16,469
449,55	15,808
449,76	21,885
449,96	19,172
450,16	21,909
450,37	15,340
450,57	16,341
450,77	16,422
450,98	22,112
451,18	22,908
451,38	17,499
451,58	21,399
451,79	20,192
451,99	22,240
452,19	16,184
452,40	16,834
452,60	18,389
452,80	18,314
453,00	21,442
453,21	21,272
453,41	19,130
453,61	17,413
453,82	21,871
454,02	11,165
454,22	19,731
454,42	25,540
454,63	16,686
454,83	18,761
455,03	19,188
455,24	17,541
455,44	22,388
455,64	21,236
455,84	18,301
456,05	12,738
456,25	19,361
456,45	24,015
456,65	19,850
456,86	22,239
457,06	20,736
457,26	25,910
457,47	22,983
457,67	20,674
457,87	19,531
458,07	19,749
458,28	25,535
458,48	21,660
458,68	20,014
458,88	17,020
459,09	21,874
459,29	22,471
459,49	22,697
459,69	20,415
459,90	21,826
460,10	16,285
460,30	20,999
460,50	18,864
460,71	23,203
460,91	17,437
461,11	19,711
461,31	17,697
461,52	23,737
461,72	22,721
461,92	23,468
462,12	24,779
462,32	20,606
462,53	19,238
462,73	18,353
462,93	23,829
463,13	21,824
463,34	18,744
463,54	19,968
463,74	22,677
463,94	19,794
464,14	23,101
464,35	18,492
464,55	21,821
464,75	20,127
464,95	25,428
465,16	16,461
465,36	19,747
465,56	21,505
465,76	19,154
465,96	19,665
466,17	21,783
466,37	21,183
466,57	25,705
466,77	19,045
466,97	19,991
467,18	22,827
467,38	22,119
467,58	21,058
467,78	22,629
467,98	24,534
468,19	22,032
468,39	26,253
468,59	21,279
468,79	24,004
468,99	22,366
469,19	19,173
469,40	27,176
469,60	24,399
469,80	18,906
470,00	18,943
470,20	22,575
470,41	20,247
470,61	23,769
470,81	23,872
471,01	21,640
471,21	21,535
471,41	23,179
471,62	20,757
471,82	24,095
472,02	21,044
472,22	25,915
472,42	24,292
472,62	24,229
472,83	24,193
473,03	27,179
473,23	22,762
473,43	27,140
473,63	24,986
473,83	25,882
474,03	23,846
474,24	27,868
474,44	19,939
474,64	25,396
474,84	22,727
475,04	25,503
475,24	22,201
475,45	22,290
475,65	21,640
475,85	23,940
476,05	22,807
476,25	20,731
476,45	23,369
476,65	28,047
476,85	24,118
477,06	24,851
477,26	22,344
477,46	22,507
477,66	19,967
477,86	24,424
478,06	22,823
478,26	27,210
478,46	24,110
478,67	24,255
478,87	22,639
479,07	21,992
479,27	24,395
479,47	20,784
479,67	18,378
479,87	19,575
480,07	25,966
480,28	21,381
480,48	23,684
480,68	23,330
480,88	28,151
481,08	24,904
481,28	25,987
481,48	25,342
481,68	21,610
481,88	22,113
482,08	22,799
482,29	25,420
482,49	21,247
482,69	23,925
482,89	22,828
483,09	22,769
483,29	24,030
483,49	20,832
483,69	25,287
483,89	22,492
484,09	21,359
484,29	21,603
484,50	21,731
484,70	23,597
484,90	24,438
485,10	21,201
485,30	24,484
485,50	23,983
485,70	22,719
485,90	22,280
486,10	19,531
486,30	22,696
486,50	22,580
486,70	23,935
486,90	21,265
487,10	24,952
487,30	22,960
487,51	21,795
487,71	18,955
487,91	21,584
488,11	22,543
488,31	19,346
488,51	22,079
488,71	22,722
488,91	23,576
489,11	22,271
489,31	23,888
489,51	20,113
489,71	23,483
489,91	24,922
490,11	22,169
490,31	24,531
490,51	24,003
490,71	22,452
490,91	22,352
491,11	25,390
491,31	24,246
491,51	22,653
491,72	23,410
491,92	25,367
492,12	25,188
492,32	23,113
492,52	27,270
492,72	24,182
492,92	24,588
493,12	26,764
493,32	24,034
493,52	21,594
493,72	22,097
493,92	25,123
494,12	24,815
494,32	23,987
494,52	21,762
494,72	23,118
494,92	24,464
495,12	23,867
495,32	24,665
495,52	21,145
495,72	26,308
495,92	27,828
496,12	22,523
496,32	23,480
496,52	22,243
496,72	24,020
496,92	25,075
497,12	23,490
497,32	26,912
497,52	25,240
497,72	26,666
497,92	25,956
498,12	23,134
498,32	23,372
498,52	23,985
498,72	27,458
498,92	22,394
499,12	26,823
499,32	24,207
499,52	27,357
499,72	26,038
499,92	24,289
500,12	25,990
500,32	26,986
500,52	26,150
500,72	28,354
500,91	24,885
501,11	26,182
501,31	25,146
501,51	26,302
501,71	25,783
501,91	28,036
502,11	27,610
502,31	23,769
502,51	27,871
502,71	24,646
502,91	26,130
503,11	24,917
503,31	25,501
503,51	25,211
503,71	23,926
503,91	29,157
504,11	29,568
504,31	25,873
504,51	27,410
504,71	27,622
504,91	27,488
505,10	25,246
505,30	25,263
505,50	24,940
505,70	25,594
505,90	27,829
506,10	24,318
506,30	22,503
506,50	28,707
506,70	29,196
506,90	26,238
507,10	27,642
507,30	25,066
507,50	28,047
507,70	28,893
507,89	27,672
508,09	26,904
508,29	27,403
508,49	28,772
508,69	23,933
508,89	25,161
509,09	27,584
509,29	28,042
509,49	27,019
509,69	30,751
509,89	25,948
510,09	26,669
510,28	28,995
510,48	25,032
510,68	27,999
510,88	26,274
511,08	25,349
511,28	26,084
511,48	28,010
511,68	24,824
511,88	26,892
512,07	27,413
512,27	28,484
512,47	25,811
512,67	28,587
512,87	26,993
513,07	25,982
513,27	24,984
513,47	26,312
513,67	24,229
513,86	28,389
514,06	27,444
514,26	26,906
514,46	27,286
514,66	25,564
514,86	28,391
515,06	31,814
515,26	30,782
515,45	25,046
515,65	25,641
515,85	24,234
516,05	25,776
516,25	27,225
516,45	28,780
516,65	24,935
516,84	30,134
517,04	28,824
517,24	26,784
517,44	27,620
517,64	29,121
517,84	29,643
518,04	27,355
518,23	29,148
518,43	29,896
518,63	25,911
518,83	29,704
519,03	27,668
519,23	30,357
519,42	26,638
519,62	26,670
519,82	24,430
520,02	27,316
520,22	27,128
520,42	26,120
520,61	26,311
520,81	29,178
521,01	27,869
521,21	26,468
521,41	28,149
521,61	27,801
521,80	25,286
522,00	30,281
522,20	26,593
522,40	28,630
522,60	27,756
522,79	28,360
522,99	29,425
523,19	27,142
523,39	27,024
523,59	27,770
523,78	29,472
523,98	26,248
524,18	29,189
524,38	26,430
524,58	27,157
524,77	31,334
524,97	27,965
525,17	29,540
525,37	26,934
525,57	28,923
525,76	29,491
525,96	27,047
526,16	27,360
526,36	25,984
526,56	27,522
526,75	25,393
526,95	27,277
527,15	27,861
527,35	27,311
527,55	29,663
527,74	28,616
527,94	25,433
528,14	26,010
528,34	29,982
528,53	25,598
528,73	26,421
528,93	26,837
529,13	26,643
529,32	29,991
529,52	28,797
529,72	24,622
529,92	27,754
530,12	27,956
530,31	23,648
530,51	28,619
530,71	31,037
530,91	27,348
531,10	22,928
531,30	27,185
531,50	28,904
531,70	30,189
531,89	24,873
532,09	27,270
532,29	26,628
532,49	26,485
532,68	26,721
532,88	25,499
533,08	25,583
533,28	27,791
533,47	27,943
533,67	30,029
533,87	23,208
534,06	29,113
534,26	27,654
534,46	25,905
534,66	28,398
534,85	27,570
535,05	25,656
535,25	25,384
535,45	25,578
535,64	28,554
535,84	22,751
536,04	26,239
536,23	27,432
536,43	28,105
536,63	25,852
536,83	28,618
537,02	28,636
537,22	26,522
537,42	25,193
537,61	27,042
537,81	27,373
538,01	26,036
538,20	26,453
538,40	26,722
538,60	25,793
538,80	24,478
538,99	25,378
539,19	24,761
539,39	24,658
539,58	24,361
539,78	21,740
539,98	22,518
540,17	21,775
540,37	22,931
540,57	23,331
540,76	21,880
540,96	20,293
541,16	21,388
541,36	20,615
541,55	18,279
541,75	18,131
541,95	19,096
542,14	19,931
542,34	18,536
542,54	18,207
542,73	20,655
542,93	19,249
543,13	19,677
543,32	19,631
543,52	18,729
543,72	18,914
543,91	19,533
544,11	18,484
544,31	18,442
544,50	18,957
544,70	20,169
544,89	20,804
545,09	20,160
545,29	19,375
545,48	19,594
545,68	18,700
545,88	19,321
546,07	20,344
546,27	20,764
546,47	21,484
546,66	21,749
546,86	23,733
547,06	20,778
547,25	22,960
547,45	24,646
547,64	20,884
547,84	26,093
548,04	23,789
548,23	25,148
548,43	24,312
548,63	26,820
548,82	25,587
549,02	23,058
549,21	25,414
549,41	26,553
549,61	23,365
549,80	25,845
550,00	26,954
550,20	24,189
550,39	24,792
550,59	25,273
550,78	25,357
550,98	21,593
551,18	27,486
551,37	27,359
551,57	25,290
551,76	25,252
551,96	26,588
552,16	25,542
552,35	24,709
552,55	27,677
552,74	27,198
552,94	26,070
553,14	26,798
553,33	24,859
553,53	24,695
553,72	25,459
553,92	27,398
554,12	26,333
554,31	27,001
554,51	26,594
554,70	26,856
554,90	29,080
555,09	27,659
555,29	26,701
555,49	27,589
555,68	28,520
555,88	24,638
556,07	24,652
556,27	26,604
556,46	26,809
556,66	25,918
556,86	28,984
557,05	26,816
557,25	27,439
557,44	27,146
557,64	25,201
557,83	25,451
558,03	28,368
558,22	27,217
558,42	27,278
558,62	28,849
558,81	26,899
559,01	27,603
559,20	26,924
559,40	27,118
559,59	26,865
559,79	26,708
559,98	29,298
560,18	28,169
560,37	29,507
560,57	28,717
560,76	27,219
560,96	26,631
561,16	27,360
561,35	27,869
561,55	30,905
561,74	27,383
561,94	27,732
562,13	26,470
562,33	27,946
562,52	27,404
562,72	25,899
562,91	25,843
563,11	26,883
563,30	28,413
563,50	24,612
563,69	26,675
563,89	26,776
564,08	30,149
564,28	27,294
564,47	28,258
564,67	25,604
564,86	26,825
565,06	26,171
565,25	26,554
565,45	27,473
565,64	30,193
565,84	26,535
566,03	28,165
566,23	28,020
566,42	27,206
566,62	27,872
566,81	26,596
567,01	27,787
567,20	29,257
567,40	26,323
567,59	27,405
567,79	28,509
567,98	29,243
568,18	29,433
568,37	30,277
568,57	28,012
568,76	29,740
568,96	28,149
569,15	28,101
569,35	27,571
569,54	29,550
569,73	27,732
569,93	28,587
570,12	27,116
570,32	28,399
570,51	27,798
570,71	29,304
570,90	28,944
571,10	26,697
571,29	26,671
571,49	27,551
571,68	26,526
571,87	26,195
572,07	26,544
572,26	26,235
572,46	27,091
572,65	27,337
572,85	23,796
573,04	26,361
573,24	26,569
573,43	29,169
573,62	28,805
573,82	27,508
574,01	26,634
574,21	27,729
574,40	26,637
574,60	26,310
574,79	29,722
574,98	27,824
575,18	28,030
575,37	26,496
575,57	26,908
575,76	27,144
575,96	26,769
576,15	27,365
576,34	26,661
576,54	28,452
576,73	27,782
576,93	27,994
577,12	27,094
577,31	27,093
577,51	25,931
577,70	25,232
577,90	26,592
578,09	25,732
578,28	25,164
578,48	26,820
578,67	27,459
578,87	25,795
579,06	25,478
579,25	25,963
579,45	26,280
579,64	25,553
579,84	25,373
580,03	25,292
580,22	26,090
580,42	24,681
580,61	26,327
580,81	26,776
581,00	26,044
581,19	25,395
581,39	27,551
581,58	25,635
581,77	26,424
581,97	27,542
582,16	26,003
582,35	23,719
582,55	25,453
582,74	27,728
582,94	25,192
583,13	24,590
583,32	25,657
583,52	26,441
583,71	25,426
583,90	26,519
584,10	24,706
584,29	26,141
584,48	25,843
584,68	25,806
584,87	25,911
585,06	26,196
585,26	24,998
585,45	26,226
585,65	27,260
585,84	23,928
586,03	25,370
586,23	24,279
586,42	24,016
586,61	26,554
586,81	24,026
587,00	25,460
587,19	24,530
587,39	26,216
587,58	25,901
587,77	24,417
587,97	25,015
588,16	25,198
588,35	25,653
588,54	26,245
588,74	23,438
588,93	25,479
589,12	26,233
589,32	25,439
589,51	27,234
589,70	24,477
589,90	26,278
590,09	25,561
590,28	29,295
590,48	24,725
590,67	26,801
590,86	26,614
591,06	26,469
591,25	26,713
591,44	26,933
591,63	25,827
591,83	25,503
592,02	27,300
592,21	25,406
592,41	25,293
592,60	25,711
592,79	25,583
592,98	25,393
593,18	26,820
593,37	26,757
593,56	26,173
593,76	25,266
593,95	24,549
594,14	27,026
594,33	28,004
594,53	26,328
594,72	26,227
594,91	28,417
595,10	27,303
595,30	26,073
595,49	26,708
595,68	27,988
595,88	27,433
596,07	26,823
596,26	26,734
596,45	28,337
596,65	24,721
596,84	25,643
597,03	26,830
597,22	27,027
597,42	29,010
597,61	25,813
597,80	26,618
597,99	26,641
598,19	27,048
598,38	27,318
598,57	25,567
598,76	26,125
598,95	26,999
599,15	27,521
599,34	26,479
599,53	26,504
599,72	25,750
599,92	26,283
600,11	26,417
600,30	26,577
600,49	27,241
600,69	26,925
600,88	26,875
601,07	26,538
601,26	27,180
601,45	25,053
601,65	25,631
601,84	27,363
602,03	26,138
602,22	27,658
602,42	27,474
602,61	26,665
602,80	28,554
602,99	27,909
603,18	26,532
603,38	28,167
603,57	26,971
603,76	27,231
603,95	25,090
604,14	28,115
604,34	26,647
604,53	26,266
604,72	27,378
604,91	26,684
605,10	26,439
605,29	26,099
605,49	24,494
605,68	26,901
605,87	26,131
606,06	25,504
606,25	26,180
606,45	26,013
606,64	25,238
606,83	26,894
607,02	25,554
607,21	28,207
607,40	25,699
607,60	24,621
607,79	24,495
607,98	23,462
608,17	24,938
608,36	25,263
608,55	25,578
608,75	23,890
608,94	22,636
609,13	21,997
609,32	21,764
609,51	21,749
609,70	22,455
609,89	22,499
610,09	21,837
610,28	21,907
610,47	22,562
610,66	20,893
610,85	19,671
611,04	22,134
611,23	21,428
611,43	21,822
611,62	21,228
611,81	20,035
612,00	21,761
612,19	20,733
612,38	21,450
612,57	22,736
612,77	22,270
612,96	23,269
613,15	22,909
613,34	23,357
613,53	23,936
613,72	25,373
613,91	23,936
614,10	23,329
614,29	24,783
614,49	25,020
614,68	23,414
614,87	25,169
615,06	27,207
615,25	24,509
615,44	25,249
615,63	25,057
615,82	24,848
616,01	24,828
616,21	23,808
616,40	25,329
616,59	27,690
616,78	26,002
616,97	26,314
617,16	25,270
617,35	24,966
617,54	26,614
617,73	26,754
617,92	25,138
618,11	25,782
618,31	24,010
618,50	26,356
618,69	25,144
618,88	24,733
619,07	24,492
619,26	24,625
619,45	24,407
619,64	26,965
619,83	23,638
620,02	24,038
620,21	26,019
620,40	24,778
620,59	25,580
620,78	24,584
620,97	26,459
621,17	26,335
621,36	25,401
621,55	26,178
621,74	26,388
621,93	24,963
622,12	25,249
622,31	24,469
622,50	24,534
622,69	26,628
622,88	25,418
623,07	26,880
623,26	25,296
623,45	27,891
623,64	25,044
623,83	25,702
624,02	27,405
624,21	26,684
624,40	26,309
624,59	24,364
624,78	25,276
624,97	26,906
625,16	25,079
625,35	24,076
625,54	25,326
625,73	26,699
625,92	24,764
626,12	27,390
626,31	26,753
626,50	26,472
626,69	26,099
626,88	23,963
627,07	26,847
627,26	24,490
627,45	25,005
627,64	25,663
627,83	25,825
628,02	25,361
628,21	24,266
628,40	24,095
628,59	27,261
628,78	24,366
628,97	25,262
629,16	25,634
629,35	25,695
629,54	27,372
629,73	25,655
629,92	24,600
630,10	24,847
630,29	25,540
630,48	25,120
630,67	24,224
630,86	25,998
631,05	24,788
631,24	26,415
631,43	23,504
631,62	25,566
631,81	25,799
632,00	26,040
632,19	24,572
632,38	25,674
632,57	26,840
632,76	26,400
632,95	25,706
633,14	27,578
633,33	26,735
633,52	27,228
633,71	27,364
633,90	24,990
634,09	25,421
634,28	25,628
634,47	26,076
634,66	26,950
634,85	26,554
635,04	29,135
635,22	27,303
635,41	26,188
635,60	26,758
635,79	26,948
635,98	24,954
636,17	27,625
636,36	25,527
636,55	26,271
636,74	25,344
636,93	26,511
637,12	27,023
637,31	25,295
637,50	25,865
637,69	25,647
637,87	25,452
638,06	25,995
638,25	26,546
638,44	26,720
638,63	24,359
638,82	26,946
639,01	26,519
639,20	26,640
639,39	28,802
639,58	24,623
639,77	27,988
639,95	26,410
640,14	27,348
640,33	25,617
640,52	25,567
640,71	26,455
640,90	26,491
641,09	28,623
641,28	25,283
641,47	25,881
641,66	25,815
641,84	27,034
642,03	25,208
642,22	27,136
642,41	29,049
642,60	28,481
642,79	25,838
642,98	27,209
643,17	26,132
643,35	26,588
643,54	25,896
643,73	26,786
643,92	27,498
644,11	25,074
644,30	25,801
644,49	27,013
644,67	26,521
644,86	25,769
645,05	27,949
645,24	25,757
645,43	27,533
645,62	26,230
645,81	25,848
645,99	27,798
646,18	27,002
646,37	25,578
646,56	25,773
646,75	28,283
646,94	28,395
647,13	26,226
647,31	25,832
647,50	25,999
647,69	27,462
647,88	26,517
648,07	26,822
648,26	28,841
648,44	26,949
648,63	26,303
648,82	26,881
649,01	25,666
649,20	25,302
649,38	26,472
649,57	27,243
649,76	25,080
649,95	25,564
650,14	24,869
650,33	26,490
650,51	26,581
650,70	27,799
650,89	25,324
651,08	27,184
651,27	26,062
651,45	25,626
651,64	27,265
651,83	26,648
652,02	27,007
652,21	27,740
652,39	28,344
652,58	27,906
652,77	27,432
652,96	29,621
653,15	27,412
653,33	27,281
653,52	26,699
653,71	27,454
653,90	27,856
654,09	27,216
654,27	26,421
654,46	28,421
654,65	26,149
654,84	27,918
655,02	26,404
655,21	27,980
655,40	27,696
655,59	26,774
655,77	27,007
655,96	26,583
656,15	27,743
656,34	26,729
656,53	26,844
656,71	25,453
656,90	25,224
657,09	25,770
657,28	25,397
657,46	24,206
657,65	27,015
657,84	25,663
658,03	26,343
658,21	25,781
658,40	25,717
658,59	26,100
658,78	26,944
658,96	26,810
659,15	27,020
659,34	27,511
659,52	28,128
659,71	25,827
659,90	25,902
660,09	26,652
660,27	26,375
660,46	26,903
660,65	26,085
660,84	24,774
661,02	27,076
661,21	27,537
661,40	26,229
661,58	26,878
661,77	26,807
661,96	24,890
662,15	26,694
662,33	26,647
662,52	26,446
662,71	25,412
662,89	25,810
663,08	26,450
663,27	24,980
663,45	26,265
663,64	26,149
663,83	23,894
664,02	25,977
664,20	26,226
664,39	24,668
664,58	26,149
664,76	25,242
664,95	25,549
665,14	25,750
665,32	25,762
665,51	26,670
665,70	25,607
665,88	27,286
666,07	26,762
666,26	25,875
666,44	26,750
666,63	26,318
666,82	25,587
667,00	25,893
667,19	24,363
667,38	25,742
667,56	27,863
667,75	25,648
667,94	27,395
668,12	23,899
668,31	28,052
668,50	25,939
668,68	26,674
668,87	26,692
669,06	25,049
669,24	27,168
669,43	26,472
669,62	25,285
669,80	25,269
669,99	25,774
670,18	25,729
670,36	25,596
670,55	26,037
670,74	25,854
670,92	26,142
671,11	26,030
671,29	25,643
671,48	26,255
671,67	25,616
671,85	26,896
672,04	26,018
672,23	25,927
672,41	25,166
672,60	27,197
672,78	25,383
672,97	24,867
673,16	26,461
673,34	26,167
673,53	25,589
673,71	25,972
673,90	26,450
674,09	27,036
674,27	25,537
674,46	24,816
674,64	25,035
674,83	25,370
675,02	25,192
675,20	25,816
675,39	25,088
675,57	26,520
675,76	25,609
675,95	26,236
676,13	26,824
676,32	25,862
676,50	24,401
676,69	25,284
676,88	25,701
677,06	26,708
677,25	25,904
677,43	26,849
677,62	26,565
677,80	27,000
677,99	26,583
678,18	25,983
678,36	26,993
678,55	25,631
678,73	24,875
678,92	26,798
679,10	25,473
679,29	26,443
679,48	26,417
679,66	25,605
679,85	25,458
680,03	25,680
680,22	24,954
680,40	26,092
680,59	24,454
680,77	25,923
680,96	26,615
681,15	24,995
681,33	25,742
681,52	25,447
681,70	25,604
681,89	28,698
682,07	25,584
682,26	25,663
682,44	25,336
682,63	25,872
682,81	26,085
683,00	27,185
683,18	25,080
683,37	26,184
683,55	26,603
683,74	25,147
683,92	27,745
684,11	26,886
684,29	25,333
684,48	24,149
684,67	24,009
684,85	26,757
685,04	25,773
685,22	26,321
685,41	25,694
685,59	26,643
685,78	24,071
685,96	25,410
686,15	26,307
686,33	24,979
686,52	25,303
686,70	25,165
686,89	24,785
687,07	25,858
687,26	26,070
687,44	26,506
687,62	25,623
687,81	26,423
687,99	24,109
688,18	25,223
688,36	25,075
688,55	26,149
688,73	25,655
688,92	25,413
689,10	26,068
689,29	26,758
689,47	27,013
689,66	26,081
689,84	27,164
690,03	26,922
690,21	25,897
690,40	25,381
690,58	25,483
690,76	23,758
690,95	28,238
691,13	26,073
691,32	26,529
691,50	27,049
691,69	25,196
691,87	26,655
692,06	26,035
692,24	24,455
692,43	26,627
692,61	24,129
692,79	25,948
692,98	23,735
693,16	25,319
693,35	25,197
693,53	24,637
693,72	26,570
693,90	27,282
694,08	24,071
694,27	24,309
694,45	26,735
694,64	26,799
694,82	26,357
695,01	24,317
695,19	26,326
695,37	24,534
695,56	24,799
695,74	25,833
695,93	26,105
696,11	24,807
696,29	25,859
696,48	26,444
696,66	24,652
696,85	26,829
697,03	24,898
697,21	25,875
697,40	25,666
697,58	25,198
697,77	24,865
697,95	25,977
698,13	27,215
698,32	24,897
698,50	25,622
698,69	24,596
698,87	26,139
699,05	25,839
699,24	25,563
699,42	26,667
699,60	23,917
699,79	23,453
699,97	25,569
700,16	23,686
700,34	25,424
700,52	26,208
700,71	24,772
700,89	23,214
701,07	25,407
701,26	25,214
701,44	24,003
701,63	24,080
701,81	26,539
701,99	26,553
702,18	24,637
702,36	24,053
702,54	25,195
702,73	23,392
702,91	24,632
703,09	24,456
703,28	25,317
703,46	26,265
703,64	25,039
703,83	25,047
704,01	25,963
704,19	25,195
704,38	24,399
704,56	25,687
704,74	25,678
704,93	25,966
705,11	24,267
705,29	25,861
705,48	26,751
705,66	25,171
705,84	24,459
706,03	22,909
706,21	24,250
706,39	24,267
706,58	24,143
706,76	24,123
706,94	28,220
707,12	24,884
707,31	25,432
707,49	24,681
707,67	24,041
707,86	25,490
708,04	24,322
708,22	24,454
708,41	24,521
708,59	25,008
708,77	24,004
708,95	27,461
709,14	26,494
709,32	25,072
709,50	25,029
709,69	25,071
709,87	24,994
710,05	26,692
710,23	24,721
710,42	24,924
710,60	24,192
710,78	25,919
710,97	24,307
711,15	24,830
711,33	25,903
711,51	24,733
711,70	23,995
711,88	23,303
712,06	26,383
712,24	26,263
712,43	22,878
712,61	23,568
712,79	23,259
712,97	22,957
713,16	24,743
713,34	24,336
713,52	25,427
713,70	25,012
713,89	23,834
714,07	24,770
714,25	24,837
714,43	26,356
714,62	25,093
714,80	25,911
714,98	23,214
715,16	25,230
715,35	24,534
715,53	25,480
715,71	24,585
715,89	26,619
716,07	25,691
716,26	27,885
716,44	25,832
716,62	24,909
716,80	25,020
716,99	25,563
717,17	26,165
717,35	26,562
717,53	24,831
717,71	25,193
717,90	25,103
718,08	23,765
718,26	24,832
718,44	25,348
718,62	24,572
718,81	24,699
718,99	25,113
719,17	25,040
719,35	25,923
719,53	23,119
719,72	25,986
719,90	25,105
720,08	24,255
720,26	25,217
720,44	25,093
720,62	24,719
720,81	25,783
720,99	28,685
721,17	26,723
721,35	25,875
721,53	24,715
721,72	26,066
721,90	25,497
722,08	26,433
722,26	26,743
722,44	24,175
722,62	24,961
722,81	26,770
722,99	23,688
723,17	24,719
723,35	24,978
723,53	25,544
723,71	26,268
723,89	25,430
724,08	24,084
724,26	24,981
724,44	23,926
724,62	24,881
724,80	25,652
724,98	25,591
725,16	26,823
725,35	25,840
725,53	23,926
725,71	24,090
725,89	27,214
726,07	24,347
726,25	26,752
726,43	25,753
726,61	25,239
726,80	25,786
726,98	25,025
727,16	24,657
727,34	24,562
727,52	23,950
727,70	23,617
727,88	26,287
728,06	23,388
728,25	23,631
728,43	24,539
728,61	24,594
728,79	23,569
728,97	23,157
729,15	24,126
729,33	26,276
729,51	24,099
729,69	25,808
729,87	24,049
730,06	23,734
730,24	24,771
730,42	23,831
730,60	24,032
730,78	24,390
730,96	24,277
731,14	26,098
731,32	24,478
731,50	24,265
731,68	23,654
731,86	25,221
732,04	23,898
732,22	25,355
732,41	25,488
732,59	25,665
732,77	25,768
732,95	24,217
733,13	25,718
733,31	25,371
733,49	25,486
733,67	25,276
733,85	25,969
734,03	25,095
734,21	25,035
734,39	25,846
734,57	26,194
734,75	25,559
734,93	24,730
735,11	23,766
735,29	23,697
735,47	25,905
735,65	27,132
735,84	22,154
736,02	26,829
736,20	25,923
736,38	24,342
736,56	23,384
736,74	24,658
736,92	23,356
737,10	24,922
737,28	25,839
737,46	24,925
737,64	26,234
737,82	24,794
738,00	25,563
738,18	26,009
738,36	24,850
738,54	26,152
738,72	23,766
738,90	24,650
739,08	27,329
739,26	22,252
739,44	26,467
739,62	24,546
739,80	26,505
739,98	24,735
740,16	23,436
740,34	24,113
740,52	27,217
740,70	24,460
740,88	26,542
741,06	23,602
741,24	24,929
741,42	25,122
741,60	22,503
741,78	25,252
741,96	23,931
742,14	25,534
742,32	24,042
742,50	25,891
742,68	24,571
742,86	24,699
743,04	23,992
743,21	26,425
743,39	26,865
743,57	22,628
743,75	26,109
743,93	25,215
744,11	23,253
744,29	24,295
744,47	26,481
744,65	23,730
744,83	23,851
745,01	24,405
745,19	25,780
745,37	26,053
745,55	24,091
745,73	24,739
745,91	24,661
746,09	25,818
746,27	24,514
746,45	23,675
746,62	25,837
746,80	25,398
746,98	25,046
747,16	25,428
747,34	24,560
747,52	25,022
747,70	24,693
747,88	25,088
748,06	25,030
748,24	25,246
748,42	25,681
748,60	23,153
748,78	24,077
748,95	25,682
749,13	26,475
749,31	24,953
749,49	25,018
749,67	26,188
749,85	27,004
750,03	26,133
750,21	23,765
750,39	24,625
750,57	25,506
750,74	26,520
750,92	23,034
751,10	26,320
751,28	24,340
751,46	24,207
751,64	25,018
751,82	25,083
752,00	24,941
752,17	25,354
752,35	23,459
752,53	24,458
752,71	23,066
752,89	25,424
753,07	25,344
753,25	24,738
753,43	22,603
753,60	26,279
753,78	24,452
753,96	26,095
754,14	24,434
754,32	23,798
754,50	25,545
754,68	24,542
754,85	24,911
755,03	26,646
755,21	24,754
755,39	25,266
755,57	25,263
755,75	24,792
755,92	23,944
756,10	23,915
756,28	25,595
756,46	24,284
756,64	24,467
756,82	25,166
756,99	25,065
757,17	24,341
757,35	23,717
757,53	24,838
757,71	27,034
757,89	23,503
758,06	24,759
758,24	24,713
758,42	23,738
758,60	24,291
758,78	23,501
758,95	24,698
759,13	25,818
759,31	22,817
759,49	24,889
759,67	23,951
759,84	24,562
760,02	23,387
760,20	23,413
760,38	23,920
760,56	24,871
760,73	26,558
760,91	24,470
761,09	24,877
761,27	24,030
761,45	24,255
761,62	24,248
761,80	23,800
761,98	24,172
762,16	24,803
762,33	23,681
762,51	25,149
762,69	23,232
762,87	23,709
763,05	24,537
763,22	22,889
763,40	22,916
763,58	24,586
763,76	25,313
763,93	27,407
764,11	25,582
764,29	22,583
764,47	24,045
764,64	23,421
764,82	26,445
765,00	23,633
765,18	21,889
765,35	22,217
765,53	24,594
765,71	21,592
765,89	24,233
766,06	24,528
766,24	25,354
766,42	24,692
766,60	24,245
766,77	23,946
766,95	23,569
767,13	24,868
767,30	23,252
767,48	24,763
767,66	23,182
767,84	22,363
768,01	23,852
768,19	25,525
768,37	23,984
768,54	24,090
768,72	26,216
768,90	22,984
769,08	24,701
769,25	23,215
769,43	25,980
769,61	23,587
769,78	24,430
769,96	25,432
770,14	25,545
770,31	25,994
770,49	24,073
770,67	25,887
770,85	23,701
771,02	26,283
771,20	25,076
771,38	24,266
771,55	23,502
771,73	22,504
771,91	24,242
772,08	26,316
772,26	25,039
772,44	24,100
772,61	22,679
772,79	23,530
772,97	25,442
773,14	22,271
773,32	24,499
773,50	22,093
773,67	23,458
773,85	27,616
774,03	23,796
774,20	25,874
774,38	25,312
774,56	22,721
774,73	23,227
774,91	23,221
775,09	22,737
775,26	23,751
775,44	25,647
775,61	25,316
775,79	22,355
775,97	24,378
776,14	23,884
776,32	25,170
776,50	21,869
776,67	23,726
776,85	22,707
777,03	22,268
777,20	21,648
777,38	26,419
777,55	24,747
777,73	22,197
777,91	24,027
778,08	25,612
778,26	25,199
778,43	25,239
778,61	21,881
778,79	25,329
778,96	21,356
779,14	24,187
779,32	23,248
779,49	25,693
779,67	23,454
779,84	25,307
780,02	23,624
780,20	22,147
780,37	25,467
780,55	20,982
780,72	26,647
780,90	26,329
781,07	23,517
781,25	27,204
781,43	24,082
781,60	22,523
781,78	24,056
781,95	23,485
782,13	23,524
782,30	27,497
782,48	21,813
782,66	23,767
782,83	22,081
783,01	23,780
783,18	25,200
783,36	24,131
783,53	25,494
783,71	23,807
783,89	24,106
784,06	24,964
784,24	23,611
784,41	22,864
784,59	24,601
784,76	25,081
784,94	22,806
785,11	21,818
785,29	22,751
785,46	23,494
785,64	24,779
785,82	20,748
785,99	24,563
786,17	22,063
786,34	23,552
786,52	25,425
786,69	25,910
786,87	24,462
787,04	24,756
787,22	22,477
787,39	25,697
787,57	22,811
787,74	24,602
787,92	23,976
788,09	24,925
788,27	24,857
788,44	23,134
788,62	23,108
788,79	23,856
788,97	25,593
789,14	21,507
789,32	24,419
789,49	23,581
789,67	25,008
789,84	25,176
790,02	24,788
790,19	24,286
790,37	24,693
790,54	26,060
790,72	26,815
790,89	26,395
791,07	25,185
791,24	21,028
791,42	24,154
791,59	23,541
791,77	23,181
791,94	23,905
792,12	22,447
792,29	22,851
792,47	23,512
792,64	25,970
792,81	24,281
792,99	23,007
793,16	25,708
793,34	23,924
793,51	23,990
793,69	25,234
793,86	24,007
794,04	24,168
794,21	27,164
794,39	20,321
794,56	24,237
794,73	25,956
794,91	23,685
795,08	23,822
795,26	25,973
795,43	22,187
795,61	25,240
795,78	26,577
795,95	24,794
796,13	26,106
796,30	24,401
796,48	20,463
796,65	24,679
796,83	28,260
797,00	26,929
797,17	22,402
797,35	24,324
797,52	24,948
797,70	24,014
797,87	23,774
798,04	20,354
798,22	27,257
798,39	24,197
798,57	25,631
798,74	24,818
798,91	20,965
799,09	21,704
799,26	25,110
799,44	25,468
799,61	23,526
799,78	24,211
799,96	27,890
800,13	24,639
800,31	23,615
800,48	24,306
800,65	26,228
800,83	23,622
801,00	23,189
801,17	24,561
801,35	23,581
801,52	27,069
801,70	24,883
801,87	23,565
802,04	25,969
802,22	24,370
802,39	26,317
802,56	28,591
802,74	24,446
802,91	22,972
803,08	21,482
803,26	22,884
803,43	26,501
803,61	25,281
803,78	25,294
803,95	22,681
804,13	28,296
804,30	24,225
804,47	26,739
804,65	26,700
804,82	24,192
804,99	22,823
805,17	27,639
805,34	24,205
805,51	27,038
805,69	23,287
805,86	21,528
806,03	27,091
806,21	25,584
806,38	21,431
806,55	27,463
806,72	25,827
806,90	25,213
807,07	21,533
807,24	24,401
807,42	25,019
807,59	22,569
807,76	22,154
807,94	23,817
808,11	26,355
808,28	26,208
808,45	27,142
808,63	25,602
808,80	22,869
808,97	23,004
809,15	25,675
809,32	26,909
809,49	19,313
809,67	19,754
809,84	26,240
810,01	29,200
810,18	29,705
810,36	27,588
810,53	30,307
810,70	23,954
810,87	25,543
811,05	22,263
811,22	23,896
811,39	24,712
811,57	22,649
811,74	29,973
811,91	23,884
812,08	24,804
812,26	27,425
812,43	21,299
812,60	23,312
812,77	26,647
812,95	26,593
813,12	26,797
813,29	19,519
813,46	24,783
813,64	22,227
813,81	23,435
813,98	22,481
814,15	27,480
814,32	28,192
814,50	24,762
814,67	26,199
814,84	27,143
815,01	28,874
815,19	21,408
815,36	25,168
815,53	24,749
815,70	23,808
815,87	27,859
816,05	23,440
816,22	26,245
816,39	25,947
816,56	26,120
816,74	24,425
816,91	23,552
817,08	28,197
817,25	26,507
817,42	23,933
817,60	27,758
817,77	23,452
817,94	29,188
818,11	25,817
818,28	26,673
818,45	31,009
818,63	23,994
818,80	25,812
818,97	29,162
819,14	29,391
819,31	27,924
819,49	24,363
819,66	27,059
819,83	21,024
820,00	26,012
820,17	27,245
820,34	25,767
820,52	29,144
820,69	27,986
820,86	24,715
821,03	24,662
821,20	28,949
821,37	28,673
821,55	21,226
821,72	23,709
821,89	24,619
822,06	26,251
822,23	20,315
822,40	24,640
822,57	22,999
822,75	30,950
822,92	26,458
823,09	25,378
823,26	25,365
823,43	26,658
823,60	18,836
823,77	24,376
823,94	32,038
824,12	29,192
824,29	24,880
824,46	25,016
824,63	30,208
824,80	30,708
824,97	25,654
825,14	27,312
825,31	24,552
825,49	23,178
825,66	27,190
825,83	19,069
826,00	27,505
826,17	28,514
826,34	23,459
826,51	21,939
826,68	23,964
826,85	27,007
827,02	22,223
827,20	25,860
827,37	21,911
827,54	27,022
827,71	22,559
827,88	27,986
828,05	32,590
828,22	23,370
828,39	25,958
828,56	29,785
828,73	28,820
828,90	28,708
829,07	19,746
829,25	32,379
829,42	28,235
829,59	25,175
829,76	21,510
829,93	22,081
830,10	29,802
830,27	24,407
830,44	26,913
830,61	29,367
830,78	23,797
830,95	27,443
831,12	22,137
831,29	26,294
831,46	17,777
831,63	29,782
831,80	29,503
831,97	25,209
832,14	32,194
832,31	34,328
832,48	26,420
832,65	25,716
832,83	31,329
833,00	28,899
833,17	25,447
833,34	28,214
833,51	23,224
833,68	30,697
833,85	28,407
834,02	27,454
834,19	26,374
834,36	27,655
834,53	20,173
834,70	26,176
834,87	28,052
835,04	24,701
835,21	23,805
835,38	23,317
835,55	23,210
835,72	34,101
835,89	28,225
836,06	28,266
836,23	30,199
836,40	30,919
836,57	21,810
836,74	27,335
836,91	27,388
837,08	30,261
837,25	26,246
837,42	20,143
837,59	28,384
837,76	28,267
837,93	25,130
838,09	21,098
838,26	28,068
838,43	29,536
838,60	27,067
838,77	27,566
838,94	32,153
839,11	27,170
839,28	22,254
839,45	22,406
839,62	30,383
839,79	25,461
839,96	26,164
840,13	29,333
840,30	26,812
840,47	21,823
840,64	22,024
840,81	24,917
840,98	28,368
841,15	28,908
841,32	20,570
841,48	28,647
841,65	35,345
841,82	24,615
841,99	26,865
842,16	20,559
842,33	31,738
842,50	36,637
842,67	27,993
842,84	20,540
843,01	28,980
843,18	27,272
843,35	25,132
843,52	23,334
843,68	31,771
843,85	23,110
844,02	30,193
844,19	36,287
844,36	28,646
844,53	27,056
844,70	30,327
844,87	30,066
845,04	27,532
845,21	24,241
845,37	31,032
845,54	24,719
845,71	17,820
845,88	32,698
846,05	27,725
846,22	24,346
846,39	23,401
846,56	24,142
846,72	12,337
846,89	30,302
847,06	36,349
847,23	31,838
847,40	25,186
847,57	24,809
847,74	28,551
847,90	33,588
848,07	29,467
848,24	24,274
848,41	23,140
848,58	34,701
848,75	28,399
848,92	17,361
849,08	22,163
849,25	30,619
849,42	24,334
849,59	31,900
849,76	27,812
849,93	20,700
850,09	32,055
850,26	28,010
850,43	35,245
850,60	29,648
850,77	17,124
850,94	34,538
851,10	28,296
851,27	26,942
851,44	24,898
851,61	17,622
851,78	27,995
851,95	16,592
852,11	26,232
852,28	30,175
852,45	30,639
852,62	27,857
852,79	30,943
852,95	23,779
853,12	40,079
853,29	30,838
853,46	25,954
853,63	35,793
853,79	30,361
853,96	15,330
854,13	38,824
854,30	22,811
854,46	32,018
854,63	31,745
854,80	27,849
854,97	25,346
855,14	27,689
855,30	28,986
855,47	6,843
855,64	26,104
855,81	31,572
855,97	29,412
856,14	38,976
856,31	15,556
856,48	39,521
856,65	31,140
856,81	25,959
856,98	18,768
857,15	28,030
857,32	27,349
857,48	16,494
857,65	27,612
857,82	25,014
857,99	29,970
858,15	27,302
858,32	29,331
858,49	29,398
858,65	36,535
858,82	23,424
858,99	21,013
859,16	26,250
859,32	41,483
859,49	26,769
859,66	19,871
859,83	28,201
859,99	34,437
860,16	29,763
860,33	28,988
860,49	32,154
860,66	41,907
860,83	33,769
861,00	37,499
861,16	36,610
861,33	22,033
861,50	22,924
861,66	31,137
861,83	37,848
862,00	30,625
862,16	25,257
862,33	18,066
862,50	31,979
862,67	28,539
862,83	24,201
863,00	36,018
863,17	32,013
863,33	28,321
863,50	10,979
863,67	9,285
863,83	21,092
864,00	31,918
864,17	29,515
864,33	32,211
864,50	38,257
864,67	31,431
864,83	12,830
865,00	24,668
865,17	30,269
865,33	33,599
865,50	32,641
865,67	37,802
865,83	36,781
866,00	37,523
866,17	41,688
866,33	32,368
866,50	48,342
866,66	42,319
866,83	25,155
867,00	32,810
867,16	35,729
867,33	20,307
867,50	14,004
867,66	24,863
867,83	45,437
868,00	27,742
868,16	28,171
868,33	29,498
868,49	22,001
868,66	43,666
868,83	33,275
868,99	26,111
869,16	50,845
869,32	42,279
869,49	32,438
869,66	0,354
869,82	40,180
869,99	31,607
870,15	27,008
870,32	30,763
870,49	40,902
870,65	53,171
870,82	36,264
870,98	18,502
871,15	35,054
871,32	12,410
871,48	0,677
871,65	21,922
871,81	34,980
871,98	12,778
872,15	0,533
872,31	24,443
872,48	53,328
872,64	28,177
872,81	0,775
872,97	36,682
873,14	42,492
873,31	31,757
873,47	15,633
873,64	33,086
873,80	65,765
873,97	72,359
874,13	7,545
874,30	23,087
874,46	63,432
874,63	37,983
874,80	27,722
874,96	28,160
875,13	62,838
875,29	34,893
875,46	60,614
875,62	0,780
875,79	32,044
875,95	20,549
876,12	25,249
876,28	6,254
876,45	48,326
876,61	31,088
876,78	28,843
876,94	36,677
877,11	60,740
877,27	44,642
877,44	-23,968
877,60	32,625
877,77	35,276
877,94	75,318
878,10	36,537
878,27	51,620
878,43	80,704
878,60	12,186
878,76	53,311
878,93	16,078
879,09	77,014
879,26	35,319
879,42	18,390
879,58	26,412
879,75	16,099
879,91	69,266
880,08	15,690
880,24	31,544
880,41	85,991
880,57	32,414
880,74	18,451
880,90	76,937
881,07	17,406
881,23	0,727
881,40	41,397
881,56	78,538
881,73	76,066
881,89	32,129
882,06	-65,850
882,22	61,336
882,38	15,468
882,55	33,972
882,71	8,925
882,88	4,849
883,04	-35,067
883,21	35,770
883,37	52,169
883,54	-0,315
883,70	96,474
883,86	49,948
884,03	68,559
884,19	11,920
884,36	49,192
884,52	49,454
884,69	46,249
884,85	25,904
885,01	43,409
885,18	60,545
885,34	8,556
885,51	-44,003
885,67	55,936
>>>>> Data<<<<< Espectral Procesado Extremo
