Fichero De Datos De SpectraSuite
++++++++++++++++++++++++++++++++++++
Fecha: Wed Apr 22 13:01:07 CEST 2009
Usuario: evoflor
Presente Oscuro Del Espectro: Sí
La Referencia de Presente Del Espectro De: Sí
Muestreados de los componentes de Número de espectros: 1
Espectrómetros: USB4F02353
Tiempo de integración (usec): 500000 (USB4F02353)
Promedio de Espectros Hechos un: 5 (USB4F02353)
El Alisar Del Furgón: 0 (USB4F02353)
Párrafo de de Corregir del la del del de Eléctrica del obscuridad: Sí (USB4F02353)
Estrobo/Lámpara Permitido: No (USB4F02353)
Correct for Detector Non-linearity: No (USB4F02353)
Párrafo de de Corregir del la del del de Externa del luz: No (USB4F02353)
Procesado del espectro de Número de pixeles en: 3648
>>>>> Comienza Data<<<<< Espectral Procesado Del EL
177,79	437,970
178,00	437,970
178,22	437,970
178,44	1608,352
178,66	-512,361
178,88	380,000
179,09	-192,936
179,31	335,548
179,53	917,771
179,75	285,663
179,96	646,897
180,18	-474,585
180,40	152,994
180,62	559,523
180,83	-526,694
181,05	-2320,000
181,27	-239740,000
181,49	7,087
181,70	700,538
181,92	851,472
182,14	719,398
182,36	92,275
182,58	743,600
182,79	1415,804
183,01	-161,394
183,23	280,920
183,45	-607,508
183,66	-280,265
183,88	748,471
184,10	-2215,273
184,32	214,703
184,53	215,087
184,75	-193,810
184,97	30,870
185,18	-232,406
185,40	-715,577
185,62	243,714
185,84	-170,218
186,05	160,795
186,27	-234,575
186,49	3751,538
186,71	115,008
186,92	196,300
187,14	-319,510
187,36	182,207
187,58	186,139
187,79	-90,790
188,01	363,586
188,23	-218,295
188,45	-17,910
188,66	-102,946
188,88	-4980,727
189,10	-3198,400
189,31	-14,403
189,53	13,759
189,75	413,955
189,97	766,308
190,18	9,185
190,40	1187,882
190,62	-479,194
190,83	-375,370
191,05	180,827
191,27	234,971
191,49	473,119
191,70	-849,712
191,92	-712,203
192,14	-102,611
192,35	614,430
192,57	4124,000
192,79	-55,161
193,01	237,379
193,22	112,835
193,44	-163,379
193,66	70,037
193,87	137,559
194,09	-75,778
194,31	161,231
194,53	1223,357
194,74	160,226
194,96	100,563
195,18	140,606
195,39	-594,565
195,61	-229,853
195,83	-315,739
196,04	175,193
196,26	43,518
196,48	24,264
196,70	419,364
196,91	31,208
197,13	185,418
197,35	0,573
197,56	725,511
197,78	2165,224
198,00	946,434
198,21	399,223
198,43	-1100,814
198,65	239,691
198,86	389,712
199,08	104,393
199,30	248,462
199,51	-470,163
199,73	302,197
199,95	506,535
200,16	839,000
200,38	299,609
200,60	191,783
200,81	328,351
201,03	-28,424
201,25	-2082,400
201,46	182,088
201,68	80,905
201,90	3096,364
202,11	-715,802
202,33	210,664
202,55	611,750
202,76	-226,934
202,98	408,850
203,20	-239,615
203,41	-394,947
203,63	202,527
203,85	-197440,000
204,06	192,900
204,28	-100,578
204,50	283,941
204,71	445,830
204,93	67,520
205,15	226,024
205,36	-379,235
205,58	152,668
205,80	-224,401
206,01	69,049
206,23	214,893
206,45	280,767
206,66	247,891
206,88	-169,983
207,10	481,455
207,31	442,702
207,53	13,829
207,75	82,225
207,96	680,896
208,18	-292,389
208,39	-31,606
208,61	3481,143
208,83	-441,011
209,04	341,842
209,26	-254,562
209,48	397,893
209,69	260,387
209,91	1129,189
210,13	141,690
210,34	-64,552
210,56	248,195
210,77	-2135,748
210,99	78,093
211,21	9443,529
211,42	-313,197
211,64	-94,210
211,86	315,777
212,07	278,815
212,29	343,603
212,50	169,076
212,72	254,000
212,94	105,114
213,15	159,532
213,37	190,150
213,58	67,095
213,80	-2712,143
214,02	14472,941
214,23	373,431
214,45	305,049
214,67	-717,561
214,88	-336,376
215,10	-388,803
215,31	-5,153
215,53	-126,045
215,75	305,809
215,96	2579,130
216,18	-1503,662
216,39	292,128
216,61	717,991
216,83	748,839
217,04	1904,944
217,26	61,516
217,47	254,432
217,69	406,830
217,91	57,113
218,12	-170440,000
218,34	217,133
218,55	576,233
218,77	68,649
218,99	184,309
219,20	-188,155
219,42	542,439
219,63	-77,484
219,85	-217,670
220,06	-61,000
220,28	293,817
220,50	27,737
220,71	116,902
220,93	4846,038
221,14	-3171,400
221,36	-201,989
221,58	17,382
221,79	397,433
222,01	1484,828
222,22	1091,711
222,44	499,326
222,65	205,443
222,87	-129,790
223,09	133,867
223,30	70,669
223,52	274,283
223,73	189,742
223,95	-73,042
224,16	164,000
224,38	457,204
224,60	126,936
224,81	215,870
225,03	123,282
225,24	307,526
225,46	63,355
225,67	18,460
225,89	94,686
226,10	700,422
226,32	881,120
226,54	-10,025
226,75	-56,376
226,97	120,708
227,18	241,538
227,40	106,549
227,61	78,710
227,83	10,051
228,04	142,191
228,26	115,850
228,47	40,841
228,69	364,982
228,91	280,973
229,12	146,155
229,34	45,862
229,55	62,964
229,77	60,093
229,98	-0,302
230,20	77,853
230,41	20,477
230,63	117,636
230,84	48,648
231,06	19,036
231,27	42,068
231,49	66,396
231,71	14,875
231,92	25,945
232,14	32,939
232,35	78,779
232,57	54,823
232,78	25,793
233,00	61,533
233,21	48,009
233,43	15,822
233,64	31,025
233,86	47,745
234,07	56,488
234,29	15,716
234,50	21,589
234,72	48,159
234,93	29,653
235,15	12,209
235,36	21,590
235,58	53,314
235,79	62,260
236,01	13,227
236,22	6,291
236,44	55,329
236,65	33,019
236,87	29,525
237,08	-1,089
237,30	9,272
237,51	30,749
237,73	5,380
237,94	15,273
238,16	23,833
238,37	27,077
238,59	19,005
238,80	14,464
239,02	5,227
239,23	19,027
239,45	3,343
239,66	26,044
239,88	34,985
240,09	33,184
240,31	8,046
240,52	3,102
240,74	19,935
240,95	27,658
241,17	7,029
241,38	5,244
241,60	19,203
241,81	40,930
242,03	4,855
242,24	14,524
242,46	25,978
242,67	10,392
242,89	10,596
243,10	23,397
243,32	33,754
243,53	25,165
243,75	11,932
243,96	10,950
244,18	17,787
244,39	19,325
244,60	10,251
244,82	3,851
245,03	28,212
245,25	19,567
245,46	29,460
245,68	10,941
245,89	28,187
246,11	19,772
246,32	12,021
246,54	12,501
246,75	11,727
246,97	15,871
247,18	28,216
247,39	6,594
247,61	15,724
247,82	21,201
248,04	12,099
248,25	7,237
248,47	21,221
248,68	20,044
248,90	9,827
249,11	3,135
249,33	24,104
249,54	13,861
249,75	13,997
249,97	9,314
250,18	19,134
250,40	22,994
250,61	-7,746
250,83	8,698
251,04	9,475
251,25	15,125
251,47	5,251
251,68	17,004
251,90	15,727
252,11	15,035
252,33	4,739
252,54	13,916
252,76	10,571
252,97	4,494
253,18	2,108
253,40	11,287
253,61	4,009
253,83	18,209
254,04	12,393
254,25	13,405
254,47	7,762
254,68	11,888
254,90	8,761
255,11	11,128
255,33	12,210
255,54	7,292
255,75	10,890
255,97	12,241
256,18	5,741
256,40	18,564
256,61	8,772
256,82	2,263
257,04	14,548
257,25	7,768
257,47	11,868
257,68	8,216
257,89	15,866
258,11	14,847
258,32	8,461
258,54	6,468
258,75	19,183
258,96	17,506
259,18	7,468
259,39	9,123
259,61	14,839
259,82	8,148
260,03	10,677
260,25	12,885
260,46	9,809
260,68	5,729
260,89	7,735
261,10	10,016
261,32	11,306
261,53	7,353
261,75	8,086
261,96	3,758
262,17	14,695
262,39	13,978
262,60	3,758
262,81	2,383
263,03	17,101
263,24	14,514
263,46	4,813
263,67	5,026
263,88	12,603
264,10	11,126
264,31	7,108
264,52	7,547
264,74	9,751
264,95	12,306
265,17	11,710
265,38	12,262
265,59	14,202
265,81	15,357
266,02	2,325
266,23	5,462
266,45	18,667
266,66	13,943
266,87	7,664
267,09	3,635
267,30	12,543
267,52	14,199
267,73	6,177
267,94	6,074
268,16	10,723
268,37	5,728
268,58	9,959
268,80	5,732
269,01	8,355
269,22	13,072
269,44	9,469
269,65	8,827
269,86	6,174
270,08	11,485
270,29	8,077
270,50	10,315
270,72	15,881
270,93	8,824
271,14	5,383
271,36	5,773
271,57	13,929
271,78	10,426
272,00	13,702
272,21	11,610
272,42	12,396
272,64	9,707
272,85	8,299
273,06	6,971
273,28	11,980
273,49	9,451
273,70	9,932
273,92	11,613
274,13	12,757
274,34	5,572
274,56	8,281
274,77	8,771
274,98	12,619
275,20	10,281
275,41	10,192
275,62	6,652
275,84	11,417
276,05	19,319
276,26	4,738
276,47	5,035
276,69	14,994
276,90	13,592
277,11	4,848
277,33	6,951
277,54	14,528
277,75	11,212
277,97	4,576
278,18	9,847
278,39	15,158
278,61	7,067
278,82	6,593
279,03	10,951
279,24	8,552
279,46	8,656
279,67	13,825
279,88	5,228
280,10	14,285
280,31	4,740
280,52	9,115
280,73	4,330
280,95	13,150
281,16	12,719
281,37	7,963
281,59	7,931
281,80	15,428
282,01	5,840
282,22	8,828
282,44	7,417
282,65	17,297
282,86	10,181
283,08	7,252
283,29	7,857
283,50	10,325
283,71	10,067
283,93	9,790
284,14	10,510
284,35	7,513
284,56	7,539
284,78	6,097
284,99	8,340
285,20	15,149
285,42	8,915
285,63	7,499
285,84	2,442
286,05	7,648
286,27	9,024
286,48	5,514
286,69	5,097
286,90	5,386
287,12	9,472
287,33	6,123
287,54	4,696
287,75	10,490
287,97	9,779
288,18	7,583
288,39	6,958
288,60	7,598
288,82	5,226
289,03	8,781
289,24	9,165
289,45	12,669
289,67	8,040
289,88	6,856
290,09	9,025
290,30	8,732
290,52	7,026
290,73	6,013
290,94	3,473
291,15	7,498
291,37	11,421
291,58	7,475
291,79	5,988
292,00	9,603
292,21	11,246
292,43	6,576
292,64	5,563
292,85	5,366
293,06	13,420
293,28	7,345
293,49	4,497
293,70	11,170
293,91	6,885
294,12	8,559
294,34	7,873
294,55	9,246
294,76	8,591
294,97	10,154
295,19	6,398
295,40	8,799
295,61	8,786
295,82	3,154
296,03	9,780
296,25	6,697
296,46	4,023
296,67	1,798
296,88	2,566
297,09	9,838
297,31	8,392
297,52	7,255
297,73	3,691
297,94	12,227
298,15	9,105
298,37	3,885
298,58	9,399
298,79	10,419
299,00	3,816
299,21	5,432
299,43	3,121
299,64	12,889
299,85	8,214
300,06	7,108
300,27	4,606
300,49	14,111
300,70	10,546
300,91	5,426
301,12	6,845
301,33	11,487
301,54	6,860
301,76	10,041
301,97	6,524
302,18	7,398
302,39	8,668
302,60	15,854
302,82	7,058
303,03	10,922
303,24	9,625
303,45	9,480
303,66	8,690
303,87	7,919
304,09	10,461
304,30	4,384
304,51	5,435
304,72	6,400
304,93	11,787
305,14	6,897
305,36	4,205
305,57	4,426
305,78	7,311
305,99	6,331
306,20	6,912
306,41	6,404
306,62	6,527
306,84	4,342
307,05	3,974
307,26	9,029
307,47	12,875
307,68	7,201
307,89	6,871
308,11	10,037
308,32	7,897
308,53	7,786
308,74	3,087
308,95	7,415
309,16	12,648
309,37	8,246
309,59	4,052
309,80	9,163
310,01	9,151
310,22	8,668
310,43	6,206
310,64	7,601
310,85	9,571
311,06	8,145
311,28	6,953
311,49	9,523
311,70	12,630
311,91	6,309
312,12	6,785
312,33	7,681
312,54	8,098
312,75	6,816
312,97	3,299
313,18	10,128
313,39	5,559
313,60	5,670
313,81	5,075
314,02	7,813
314,23	9,706
314,44	3,816
314,65	6,076
314,87	6,981
315,08	6,502
315,29	10,298
315,50	7,970
315,71	10,060
315,92	14,222
316,13	5,755
316,34	7,518
316,55	8,978
316,77	1,952
316,98	5,974
317,19	5,350
317,40	9,726
317,61	9,995
317,82	4,107
318,03	4,079
318,24	5,596
318,45	10,709
318,66	6,279
318,87	3,185
319,09	9,500
319,30	9,089
319,51	9,004
319,72	8,454
319,93	11,556
320,14	9,832
320,35	10,059
320,56	4,776
320,77	6,769
320,98	14,332
321,19	6,109
321,40	2,727
321,62	5,764
321,83	5,564
322,04	7,434
322,25	4,520
322,46	11,484
322,67	11,596
322,88	8,867
323,09	4,474
323,30	9,850
323,51	12,076
323,72	8,757
323,93	4,116
324,14	5,208
324,35	2,666
324,56	3,827
324,77	8,035
324,99	6,573
325,20	2,338
325,41	7,888
325,62	9,881
325,83	4,781
326,04	6,240
326,25	9,150
326,46	3,651
326,67	8,331
326,88	10,140
327,09	6,404
327,30	5,058
327,51	8,699
327,72	7,939
327,93	7,361
328,14	4,178
328,35	5,376
328,56	7,638
328,77	7,225
328,98	9,589
329,19	9,236
329,40	10,808
329,61	5,984
329,82	1,662
330,04	8,234
330,25	6,134
330,46	5,794
330,67	4,564
330,88	6,141
331,09	8,112
331,30	6,880
331,51	4,457
331,72	8,158
331,93	12,491
332,14	5,590
332,35	8,835
332,56	8,927
332,77	9,371
332,98	1,402
333,19	4,346
333,40	7,361
333,61	6,166
333,82	9,956
334,03	8,070
334,24	9,801
334,45	5,479
334,66	5,678
334,87	7,592
335,08	2,739
335,29	5,656
335,50	4,053
335,71	3,733
335,92	11,598
336,13	10,379
336,34	2,936
336,55	7,805
336,76	10,172
336,97	5,974
337,18	3,701
337,39	5,992
337,60	8,856
337,81	9,934
338,02	6,528
338,23	6,128
338,44	7,599
338,65	4,882
338,86	6,470
339,07	5,201
339,28	9,256
339,49	8,090
339,70	3,256
339,91	5,418
340,11	11,077
340,32	2,344
340,53	5,718
340,74	3,299
340,95	2,661
341,16	9,175
341,37	6,123
341,58	5,961
341,79	7,893
342,00	6,172
342,21	5,622
342,42	7,113
342,63	6,141
342,84	6,153
343,05	6,274
343,26	8,682
343,47	6,730
343,68	5,510
343,89	6,836
344,10	6,929
344,31	9,149
344,52	6,222
344,73	4,889
344,94	6,280
345,14	9,385
345,35	7,157
345,56	4,513
345,77	4,949
345,98	7,583
346,19	7,018
346,40	5,282
346,61	6,837
346,82	7,361
347,03	8,569
347,24	7,246
347,45	5,191
347,66	11,894
347,87	5,502
348,08	9,578
348,28	5,144
348,49	8,464
348,70	9,381
348,91	7,250
349,12	4,717
349,33	18,696
349,54	7,361
349,75	10,375
349,96	5,035
350,17	7,958
350,38	4,308
350,59	12,468
350,80	6,864
351,00	9,113
351,21	10,762
351,42	7,369
351,63	-0,581
351,84	11,305
352,05	10,779
352,26	5,222
352,47	3,632
352,68	10,891
352,89	8,129
353,09	8,483
353,30	1,998
353,51	6,542
353,72	9,456
353,93	9,216
354,14	6,607
354,35	8,155
354,56	9,320
354,77	7,010
354,98	4,019
355,18	8,592
355,39	14,123
355,60	6,593
355,81	7,110
356,02	8,917
356,23	5,776
356,44	5,319
356,65	8,504
356,85	13,842
357,06	9,660
357,27	7,146
357,48	3,939
357,69	10,179
357,90	6,019
358,11	4,799
358,32	5,889
358,52	10,666
358,73	10,617
358,94	4,979
359,15	9,699
359,36	9,181
359,57	10,206
359,78	8,320
359,98	4,935
360,19	6,096
360,40	6,651
360,61	9,180
360,82	4,204
361,03	11,510
361,24	8,766
361,44	3,006
361,65	7,793
361,86	3,727
362,07	10,218
362,28	8,794
362,49	2,111
362,70	10,675
362,90	7,476
363,11	5,351
363,32	2,754
363,53	7,959
363,74	13,433
363,95	8,625
364,15	7,112
364,36	11,437
364,57	9,217
364,78	5,777
364,99	4,142
365,20	10,708
365,40	13,383
365,61	7,790
365,82	11,020
366,03	9,780
366,24	8,311
366,45	2,941
366,65	5,541
366,86	9,393
367,07	7,507
367,28	4,002
367,49	3,515
367,69	12,519
367,90	8,842
368,11	6,771
368,32	7,973
368,53	12,941
368,73	10,712
368,94	3,672
369,15	5,408
369,36	12,317
369,57	8,274
369,78	6,006
369,98	6,612
370,19	14,691
370,40	5,896
370,61	8,029
370,82	4,814
371,02	9,521
371,23	10,379
371,44	4,999
371,65	7,068
371,85	12,148
372,06	7,231
372,27	7,124
372,48	8,809
372,69	8,020
372,89	6,334
373,10	7,204
373,31	6,744
373,52	9,825
373,73	14,196
373,93	9,786
374,14	7,967
374,35	9,627
374,56	11,268
374,76	5,145
374,97	6,084
375,18	12,332
375,39	7,654
375,60	9,336
375,80	7,599
376,01	5,742
376,22	10,783
376,43	6,446
376,63	6,672
376,84	9,234
377,05	9,065
377,26	4,266
377,46	5,965
377,67	6,330
377,88	7,916
378,09	5,257
378,29	4,956
378,50	7,752
378,71	10,415
378,92	6,620
379,12	10,381
379,33	7,440
379,54	3,810
379,75	9,391
379,95	8,307
380,16	8,677
380,37	11,929
380,58	9,472
380,78	10,134
380,99	7,312
381,20	5,199
381,41	7,930
381,61	9,926
381,82	8,581
382,03	7,041
382,24	9,721
382,44	7,678
382,65	8,863
382,86	8,896
383,06	7,205
383,27	7,725
383,48	5,809
383,69	9,006
383,89	8,220
384,10	5,799
384,31	11,000
384,51	10,224
384,72	8,524
384,93	7,444
385,14	6,930
385,34	8,065
385,55	6,396
385,76	4,086
385,96	12,281
386,17	8,726
386,38	10,806
386,59	10,140
386,79	9,688
387,00	11,505
387,21	11,829
387,41	10,594
387,62	7,899
387,83	11,154
388,03	10,601
388,24	3,610
388,45	7,364
388,66	12,421
388,86	8,637
389,07	3,092
389,28	12,816
389,48	10,272
389,69	8,607
389,90	9,583
390,10	11,311
390,31	15,138
390,52	5,124
390,72	5,298
390,93	12,144
391,14	12,569
391,34	9,590
391,55	11,788
391,76	14,563
391,96	9,242
392,17	9,507
392,38	14,365
392,58	11,578
392,79	12,505
393,00	6,889
393,20	9,738
393,41	11,263
393,62	13,278
393,82	14,085
394,03	11,862
394,24	16,489
394,44	19,198
394,65	13,688
394,86	8,617
395,06	15,736
395,27	15,064
395,48	10,435
395,68	12,480
395,89	15,510
396,10	15,807
396,30	10,494
396,51	7,478
396,72	16,828
396,92	10,438
397,13	16,604
397,34	9,007
397,54	17,134
397,75	13,756
397,95	12,920
398,16	14,132
398,37	15,807
398,57	13,733
398,78	16,108
398,99	17,116
399,19	16,499
399,40	20,168
399,60	12,951
399,81	15,520
400,02	18,747
400,22	20,567
400,43	16,149
400,64	17,956
400,84	15,235
401,05	21,945
401,25	23,962
401,46	18,460
401,67	19,681
401,87	21,487
402,08	14,521
402,29	19,837
402,49	25,605
402,70	22,748
402,90	12,283
403,11	22,735
403,32	22,926
403,52	19,897
403,73	21,668
403,93	23,700
404,14	27,480
404,35	22,364
404,55	17,944
404,76	22,769
404,96	23,513
405,17	25,996
405,38	25,489
405,58	21,837
405,79	29,482
405,99	27,628
406,20	25,604
406,40	19,449
406,61	28,645
406,82	23,145
407,02	28,106
407,23	23,628
407,43	23,635
407,64	25,521
407,85	26,261
408,05	22,143
408,26	39,877
408,46	34,959
408,67	22,982
408,87	26,315
409,08	28,475
409,29	34,859
409,49	30,724
409,70	29,456
409,90	31,014
410,11	33,502
410,31	35,179
410,52	29,976
410,72	33,397
410,93	34,394
411,14	32,121
411,34	28,412
411,55	33,291
411,75	35,429
411,96	32,063
412,16	36,914
412,37	33,465
412,57	34,714
412,78	36,023
412,99	33,910
413,19	37,186
413,40	34,188
413,60	28,142
413,81	32,952
414,01	35,930
414,22	37,848
414,42	36,983
414,63	35,010
414,83	36,286
415,04	39,014
415,24	41,642
415,45	36,658
415,65	35,709
415,86	39,267
416,07	35,923
416,27	39,754
416,48	41,089
416,68	46,794
416,89	37,552
417,09	39,801
417,30	46,226
417,50	42,920
417,71	43,811
417,91	42,397
418,12	40,164
418,32	45,868
418,53	41,667
418,73	41,271
418,94	43,881
419,14	44,215
419,35	42,655
419,55	46,084
419,76	44,680
419,96	45,328
420,17	38,800
420,37	45,566
420,58	47,697
420,78	48,106
420,99	43,443
421,19	45,717
421,40	46,048
421,60	51,059
421,81	41,639
422,01	44,045
422,22	48,044
422,42	52,033
422,63	51,581
422,83	43,181
423,04	53,636
423,24	50,445
423,45	46,320
423,65	46,031
423,86	51,679
424,06	48,128
424,27	48,562
424,47	47,891
424,67	47,738
424,88	55,036
425,08	44,773
425,29	53,749
425,49	47,795
425,70	43,861
425,90	48,035
426,11	46,894
426,31	53,637
426,52	51,071
426,72	48,020
426,93	47,361
427,13	53,457
427,33	50,888
427,54	52,411
427,74	54,996
427,95	54,394
428,15	50,187
428,36	49,897
428,56	47,880
428,77	53,162
428,97	49,626
429,18	56,292
429,38	46,525
429,58	56,272
429,79	56,139
429,99	46,368
430,20	46,942
430,40	57,094
430,61	49,325
430,81	51,660
431,01	55,842
431,22	57,664
431,42	56,627
431,63	47,801
431,83	51,511
432,04	55,987
432,24	56,441
432,44	55,053
432,65	49,235
432,85	49,606
433,06	54,845
433,26	46,863
433,47	50,100
433,67	51,656
433,87	52,954
434,08	49,638
434,28	48,564
434,49	53,542
434,69	57,529
434,89	47,783
435,10	50,891
435,30	56,893
435,51	48,038
435,71	49,548
435,91	52,272
436,12	48,875
436,32	52,821
436,53	50,775
436,73	48,418
436,93	56,898
437,14	55,091
437,34	52,906
437,55	49,673
437,75	56,450
437,95	60,322
438,16	49,374
438,36	55,121
438,57	51,546
438,77	56,649
438,97	51,577
439,18	56,582
439,38	53,930
439,58	52,376
439,79	55,259
439,99	51,115
440,20	62,558
440,40	59,238
440,60	51,045
440,81	56,098
441,01	54,368
441,21	58,703
441,42	56,787
441,62	58,344
441,83	57,241
442,03	54,747
442,23	56,397
442,44	56,477
442,64	58,166
442,84	50,817
443,05	53,557
443,25	50,786
443,45	59,322
443,66	54,993
443,86	52,714
444,06	58,554
444,27	53,562
444,47	59,251
444,67	50,262
444,88	58,056
445,08	57,061
445,28	58,325
445,49	52,988
445,69	50,172
445,90	53,024
446,10	59,972
446,30	55,936
446,51	57,753
446,71	63,460
446,91	61,902
447,12	60,223
447,32	56,433
447,52	55,789
447,72	57,318
447,93	56,394
448,13	56,297
448,33	60,672
448,54	61,356
448,74	52,535
448,94	56,120
449,15	61,635
449,35	62,004
449,55	56,327
449,76	62,398
449,96	58,736
450,16	63,525
450,37	52,096
450,57	53,817
450,77	57,705
450,98	56,704
451,18	54,302
451,38	53,502
451,58	58,149
451,79	57,492
451,99	58,934
452,19	55,471
452,40	56,662
452,60	54,986
452,80	52,553
453,00	58,068
453,21	53,252
453,41	61,664
453,61	57,578
453,82	57,766
454,02	54,240
454,22	63,176
454,42	57,695
454,63	55,426
454,83	54,761
455,03	60,241
455,24	56,542
455,44	54,839
455,64	53,677
455,84	58,970
456,05	53,669
456,25	56,426
456,45	59,355
456,65	57,513
456,86	61,995
457,06	54,765
457,26	67,934
457,47	62,980
457,67	56,545
457,87	52,409
458,07	57,088
458,28	59,704
458,48	56,612
458,68	52,881
458,88	60,433
459,09	53,610
459,29	62,922
459,49	55,518
459,69	58,862
459,90	60,603
460,10	56,739
460,30	55,636
460,50	53,791
460,71	60,178
460,91	54,383
461,11	58,608
461,31	54,245
461,52	63,011
461,72	55,743
461,92	56,217
462,12	65,002
462,32	52,751
462,53	55,374
462,73	56,469
462,93	57,443
463,13	61,898
463,34	53,075
463,54	55,907
463,74	54,100
463,94	53,894
464,14	55,047
464,35	51,709
464,55	64,573
464,75	65,897
464,95	54,841
465,16	54,082
465,36	63,330
465,56	55,443
465,76	55,480
465,96	57,160
466,17	56,511
466,37	53,389
466,57	60,022
466,77	55,729
466,97	52,362
467,18	60,009
467,38	56,551
467,58	58,673
467,78	60,582
467,98	64,002
468,19	57,312
468,39	57,874
468,59	60,404
468,79	59,232
468,99	58,980
469,19	52,411
469,40	58,411
469,60	57,138
469,80	52,570
470,00	58,752
470,20	61,355
470,41	54,498
470,61	58,415
470,81	60,054
471,01	52,069
471,21	59,784
471,41	57,596
471,62	56,538
471,82	54,611
472,02	54,096
472,22	55,431
472,42	57,251
472,62	56,967
472,83	51,619
473,03	60,892
473,23	55,130
473,43	59,373
473,63	59,777
473,83	57,906
474,03	55,008
474,24	60,331
474,44	55,957
474,64	54,944
474,84	54,051
475,04	54,585
475,24	56,338
475,45	54,663
475,65	54,053
475,85	59,917
476,05	49,873
476,25	55,000
476,45	54,403
476,65	61,789
476,85	58,172
477,06	52,920
477,26	55,573
477,46	54,035
477,66	57,197
477,86	58,069
478,06	51,348
478,26	63,955
478,46	55,328
478,67	54,748
478,87	52,436
479,07	55,991
479,27	61,562
479,47	53,712
479,67	46,956
479,87	55,619
480,07	59,124
480,28	54,449
480,48	53,162
480,68	55,115
480,88	61,414
481,08	55,064
481,28	53,662
481,48	55,722
481,68	53,716
481,88	50,805
482,08	55,262
482,29	59,861
482,49	47,196
482,69	53,539
482,89	52,043
483,09	54,684
483,29	50,425
483,49	49,963
483,69	52,896
483,89	53,700
484,09	53,085
484,29	45,643
484,50	50,813
484,70	53,370
484,90	50,144
485,10	50,997
485,30	52,448
485,50	56,205
485,70	53,001
485,90	49,820
486,10	47,873
486,30	50,528
486,50	49,818
486,70	50,967
486,90	49,060
487,10	53,407
487,30	48,854
487,51	50,845
487,71	45,510
487,91	49,567
488,11	55,306
488,31	45,940
488,51	51,199
488,71	47,974
488,91	51,970
489,11	47,221
489,31	48,826
489,51	49,188
489,71	50,821
489,91	46,775
490,11	49,398
490,31	50,712
490,51	53,630
490,71	50,182
490,91	48,984
491,11	53,286
491,31	50,166
491,51	47,584
491,72	48,844
491,92	52,848
492,12	53,913
492,32	51,035
492,52	51,796
492,72	49,653
492,92	50,642
493,12	52,772
493,32	46,486
493,52	48,217
493,72	51,543
493,92	51,297
494,12	51,365
494,32	51,806
494,52	49,353
494,72	50,537
494,92	47,787
495,12	51,238
495,32	54,911
495,52	47,088
495,72	49,761
495,92	51,963
496,12	54,980
496,32	47,419
496,52	50,229
496,72	51,021
496,92	53,132
497,12	48,280
497,32	51,014
497,52	51,981
497,72	53,647
497,92	50,105
498,12	48,556
498,32	52,683
498,52	50,035
498,72	45,431
498,92	48,121
499,12	54,018
499,32	48,105
499,52	50,302
499,72	53,933
499,92	52,422
500,12	49,580
500,32	50,625
500,52	50,010
500,72	53,906
500,91	52,687
501,11	50,876
501,31	45,496
501,51	53,721
501,71	55,910
501,91	50,558
502,11	50,010
502,31	50,199
502,51	53,028
502,71	49,700
502,91	47,062
503,11	49,942
503,31	51,366
503,51	46,541
503,71	45,454
503,91	50,470
504,11	51,996
504,31	49,094
504,51	50,742
504,71	53,315
504,91	47,448
505,10	51,528
505,30	49,211
505,50	50,462
505,70	49,347
505,90	49,033
506,10	43,384
506,30	48,170
506,50	51,331
506,70	53,425
506,90	46,462
507,10	48,518
507,30	47,355
507,50	48,336
507,70	51,545
507,89	51,085
508,09	48,955
508,29	48,024
508,49	49,141
508,69	45,875
508,89	46,021
509,09	47,191
509,29	49,439
509,49	48,864
509,69	50,301
509,89	47,920
510,09	45,690
510,28	50,891
510,48	48,821
510,68	47,212
510,88	44,290
511,08	48,041
511,28	48,639
511,48	46,117
511,68	44,774
511,88	42,974
512,07	48,464
512,27	47,124
512,47	45,171
512,67	47,560
512,87	44,889
513,07	47,680
513,27	45,267
513,47	45,692
513,67	43,888
513,86	47,773
514,06	45,808
514,26	44,114
514,46	50,058
514,66	45,920
514,86	42,707
515,06	50,759
515,26	47,877
515,45	46,115
515,65	45,309
515,85	44,822
516,05	44,144
516,25	44,102
516,45	45,545
516,65	42,425
516,84	45,655
517,04	50,958
517,24	45,195
517,44	43,917
517,64	50,613
517,84	48,404
518,04	43,412
518,23	46,316
518,43	48,361
518,63	40,775
518,83	42,439
519,03	46,208
519,23	46,270
519,42	43,543
519,62	43,464
519,82	44,352
520,02	44,413
520,22	42,004
520,42	41,932
520,61	45,651
520,81	46,621
521,01	45,465
521,21	40,320
521,41	42,815
521,61	46,800
521,80	40,380
522,00	43,559
522,20	46,439
522,40	43,609
522,60	43,257
522,79	41,045
522,99	45,154
523,19	41,609
523,39	43,626
523,59	39,588
523,78	46,545
523,98	43,004
524,18	44,319
524,38	41,723
524,58	43,503
524,77	48,431
524,97	43,009
525,17	42,072
525,37	42,683
525,57	49,144
525,76	41,890
525,96	42,257
526,16	39,367
526,36	42,109
526,56	41,244
526,75	41,398
526,95	42,059
527,15	44,042
527,35	42,205
527,55	39,313
527,74	44,936
527,94	39,690
528,14	40,487
528,34	40,423
528,53	43,056
528,73	47,857
528,93	43,461
529,13	37,783
529,32	41,663
529,52	43,026
529,72	37,323
529,92	37,834
530,12	39,305
530,31	38,057
530,51	39,663
530,71	43,712
530,91	45,735
531,10	38,171
531,30	39,029
531,50	39,537
531,70	41,907
531,89	38,675
532,09	38,922
532,29	39,681
532,49	40,407
532,68	39,736
532,88	37,124
533,08	35,781
533,28	38,144
533,47	40,679
533,67	41,590
533,87	38,826
534,06	44,807
534,26	40,934
534,46	38,316
534,66	36,532
534,85	40,972
535,05	33,170
535,25	38,594
535,45	36,548
535,64	42,112
535,84	37,276
536,04	35,362
536,23	41,122
536,43	41,751
536,63	35,852
536,83	39,033
537,02	37,737
537,22	38,727
537,42	34,026
537,61	36,448
537,81	37,769
538,01	40,452
538,20	39,678
538,40	34,029
538,60	35,912
538,80	36,465
538,99	34,899
539,19	36,472
539,39	35,481
539,58	34,461
539,78	31,037
539,98	31,706
540,17	30,338
540,37	33,281
540,57	31,215
540,76	31,045
540,96	29,140
541,16	31,889
541,36	29,875
541,55	26,047
541,75	26,420
541,95	28,667
542,14	28,399
542,34	26,391
542,54	27,109
542,73	27,920
542,93	28,692
543,13	28,058
543,32	24,779
543,52	28,938
543,72	26,501
543,91	28,031
544,11	26,517
544,31	26,937
544,50	26,591
544,70	28,507
544,89	26,432
545,09	30,329
545,29	28,710
545,48	27,900
545,68	26,916
545,88	30,049
546,07	27,778
546,27	27,093
546,47	28,925
546,66	30,932
546,86	31,167
547,06	29,458
547,25	30,450
547,45	34,945
547,64	32,352
547,84	35,095
548,04	31,912
548,23	36,080
548,43	33,122
548,63	36,030
548,82	33,038
549,02	33,727
549,21	32,061
549,41	33,709
549,61	33,984
549,80	31,721
550,00	35,374
550,20	31,886
550,39	34,829
550,59	31,650
550,78	35,451
550,98	31,528
551,18	35,778
551,37	34,089
551,57	32,372
551,76	32,758
551,96	33,427
552,16	32,709
552,35	36,695
552,55	35,653
552,74	33,076
552,94	39,497
553,14	32,992
553,33	33,051
553,53	33,512
553,72	34,354
553,92	38,462
554,12	33,153
554,31	32,871
554,51	36,159
554,70	32,418
554,90	35,768
555,09	39,370
555,29	35,805
555,49	35,625
555,68	36,212
555,88	34,243
556,07	35,059
556,27	37,629
556,46	33,300
556,66	33,903
556,86	37,600
557,05	37,866
557,25	32,985
557,44	34,447
557,64	34,932
557,83	35,396
558,03	33,155
558,22	35,137
558,42	35,597
558,62	39,483
558,81	34,325
559,01	34,311
559,20	35,481
559,40	36,799
559,59	33,435
559,79	32,004
559,98	35,577
560,18	36,914
560,37	33,096
560,57	36,854
560,76	34,978
560,96	33,565
561,16	34,087
561,35	32,394
561,55	38,308
561,74	36,026
561,94	35,817
562,13	34,105
562,33	39,045
562,52	37,865
562,72	33,904
562,91	34,027
563,11	35,483
563,30	36,986
563,50	32,526
563,69	34,355
563,89	32,719
564,08	35,093
564,28	31,981
564,47	35,013
564,67	36,350
564,86	35,977
565,06	32,161
565,25	34,237
565,45	36,538
565,64	40,314
565,84	34,156
566,03	32,062
566,23	35,703
566,42	35,661
566,62	36,276
566,81	35,862
567,01	33,522
567,20	36,608
567,40	33,291
567,59	32,368
567,79	38,357
567,98	38,665
568,18	34,248
568,37	34,106
568,57	34,740
568,76	40,384
568,96	34,265
569,15	35,528
569,35	39,246
569,54	39,062
569,73	36,908
569,93	34,428
570,12	33,947
570,32	37,652
570,51	34,464
570,71	35,610
570,90	39,012
571,10	34,769
571,29	34,855
571,49	33,453
571,68	36,937
571,87	36,758
572,07	34,608
572,26	33,400
572,46	36,762
572,65	39,131
572,85	33,883
573,04	35,566
573,24	36,500
573,43	40,138
573,62	38,381
573,82	37,374
574,01	37,365
574,21	36,672
574,40	34,460
574,60	33,911
574,79	39,566
574,98	36,386
575,18	38,114
575,37	34,208
575,57	37,139
575,76	36,814
575,96	37,297
576,15	36,359
576,34	37,160
576,54	39,061
576,73	38,308
576,93	36,338
577,12	38,858
577,31	37,487
577,51	36,493
577,70	36,476
577,90	38,131
578,09	37,300
578,28	36,314
578,48	37,370
578,67	39,747
578,87	38,949
579,06	35,796
579,25	37,883
579,45	38,892
579,64	36,601
579,84	36,297
580,03	37,184
580,22	40,625
580,42	36,094
580,61	37,359
580,81	37,434
581,00	38,267
581,19	39,891
581,39	36,916
581,58	38,099
581,77	38,390
581,97	40,916
582,16	38,085
582,35	37,270
582,55	38,730
582,74	40,897
582,94	38,180
583,13	35,855
583,32	38,485
583,52	39,431
583,71	39,673
583,90	39,604
584,10	41,957
584,29	40,463
584,48	38,405
584,68	38,603
584,87	41,051
585,06	38,460
585,26	38,189
585,45	38,690
585,65	41,563
585,84	39,775
586,03	39,559
586,23	38,905
586,42	42,036
586,61	42,493
586,81	40,103
587,00	42,257
587,19	40,048
587,39	42,631
587,58	40,870
587,77	40,218
587,97	40,327
588,16	42,186
588,35	39,830
588,54	41,381
588,74	42,679
588,93	44,230
589,12	41,711
589,32	40,860
589,51	42,175
589,70	38,413
589,90	41,324
590,09	41,720
590,28	46,171
590,48	40,904
590,67	42,497
590,86	43,752
591,06	42,818
591,25	45,016
591,44	44,352
591,63	42,800
591,83	44,180
592,02	42,888
592,21	44,921
592,41	43,208
592,60	45,717
592,79	44,315
592,98	44,060
593,18	43,003
593,37	44,702
593,56	46,066
593,76	45,152
593,95	42,831
594,14	43,626
594,33	48,334
594,53	45,380
594,72	45,424
594,91	50,797
595,10	46,796
595,30	43,814
595,49	46,961
595,68	47,839
595,88	48,240
596,07	47,027
596,26	47,450
596,45	47,023
596,65	43,376
596,84	46,680
597,03	48,667
597,22	47,481
597,42	51,538
597,61	48,246
597,80	49,077
597,99	48,271
598,19	51,070
598,38	48,970
598,57	48,199
598,76	50,443
598,95	50,744
599,15	49,635
599,34	48,725
599,53	49,791
599,72	49,032
599,92	49,436
600,11	47,753
600,30	50,117
600,49	52,026
600,69	50,013
600,88	52,079
601,07	50,292
601,26	49,679
601,45	50,566
601,65	50,305
601,84	51,152
602,03	51,240
602,22	52,514
602,42	53,028
602,61	49,534
602,80	53,087
602,99	52,551
603,18	50,575
603,38	52,746
603,57	51,872
603,76	50,013
603,95	50,216
604,14	52,071
604,34	52,163
604,53	51,690
604,72	52,736
604,91	52,979
605,10	53,775
605,29	55,676
605,49	51,107
605,68	54,127
605,87	53,463
606,06	50,861
606,25	51,020
606,45	51,657
606,64	53,477
606,83	54,575
607,02	51,962
607,21	53,947
607,40	52,548
607,60	51,700
607,79	50,454
607,98	51,171
608,17	50,570
608,36	49,937
608,55	51,631
608,75	52,125
608,94	50,752
609,13	46,628
609,32	44,789
609,51	47,185
609,70	46,310
609,89	48,084
610,09	44,854
610,28	49,083
610,47	45,657
610,66	45,703
610,85	43,871
611,04	47,963
611,23	45,642
611,43	44,145
611,62	45,433
611,81	45,716
612,00	46,995
612,19	45,316
612,38	46,142
612,57	48,954
612,77	47,912
612,96	48,236
613,15	47,892
613,34	52,503
613,53	50,674
613,72	52,088
613,91	51,543
614,10	50,690
614,29	54,135
614,49	50,312
614,68	50,735
614,87	53,249
615,06	55,124
615,25	50,440
615,44	53,597
615,63	55,322
615,82	51,069
616,01	52,593
616,21	53,432
616,40	56,919
616,59	57,636
616,78	56,247
616,97	56,842
617,16	56,427
617,35	58,149
617,54	57,095
617,73	56,887
617,92	55,543
618,11	58,751
618,31	53,281
618,50	56,492
618,69	57,041
618,88	56,085
619,07	54,527
619,26	55,223
619,45	55,772
619,64	56,686
619,83	55,076
620,02	53,859
620,21	58,050
620,40	56,743
620,59	54,004
620,78	53,755
620,97	56,553
621,17	57,538
621,36	56,202
621,55	54,721
621,74	56,833
621,93	56,962
622,12	55,450
622,31	56,290
622,50	57,139
622,69	60,359
622,88	57,119
623,07	59,214
623,26	56,190
623,45	60,227
623,64	57,257
623,83	57,107
624,02	59,563
624,21	58,554
624,40	59,128
624,59	57,434
624,78	59,141
624,97	60,202
625,16	55,172
625,35	54,393
625,54	58,070
625,73	55,398
625,92	56,214
626,12	59,367
626,31	61,012
626,50	60,021
626,69	57,951
626,88	55,831
627,07	59,909
627,26	58,746
627,45	58,938
627,64	58,342
627,83	59,258
628,02	57,020
628,21	58,225
628,40	56,907
628,59	61,205
628,78	58,068
628,97	58,481
629,16	57,407
629,35	57,277
629,54	61,151
629,73	60,093
629,92	57,109
630,10	59,387
630,29	58,776
630,48	58,768
630,67	56,361
630,86	60,081
631,05	60,088
631,24	59,385
631,43	54,876
631,62	59,526
631,81	59,147
632,00	57,249
632,19	55,468
632,38	58,812
632,57	61,077
632,76	60,371
632,95	59,281
633,14	61,675
633,33	61,269
633,52	61,871
633,71	62,014
633,90	58,290
634,09	60,253
634,28	59,619
634,47	60,299
634,66	62,185
634,85	60,892
635,04	62,302
635,22	58,922
635,41	60,114
635,60	63,316
635,79	60,127
635,98	57,099
636,17	61,367
636,36	60,293
636,55	59,972
636,74	59,269
636,93	61,151
637,12	63,353
637,31	60,226
637,50	57,296
637,69	61,137
637,87	62,958
638,06	59,101
638,25	60,087
638,44	62,394
638,63	58,189
638,82	58,521
639,01	60,799
639,20	61,450
639,39	62,673
639,58	58,658
639,77	61,672
639,95	61,427
640,14	62,916
640,33	57,774
640,52	60,814
640,71	62,828
640,90	59,960
641,09	64,557
641,28	61,072
641,47	63,905
641,66	63,408
641,84	61,428
642,03	60,146
642,22	61,533
642,41	64,521
642,60	60,114
642,79	60,322
642,98	60,773
643,17	61,274
643,35	58,723
643,54	58,161
643,73	62,452
643,92	61,603
644,11	61,112
644,30	60,172
644,49	64,573
644,67	61,419
644,86	58,597
645,05	63,111
645,24	60,320
645,43	61,911
645,62	61,565
645,81	60,528
645,99	65,142
646,18	62,492
646,37	60,831
646,56	59,132
646,75	64,032
646,94	65,840
647,13	60,256
647,31	61,063
647,50	60,973
647,69	65,032
647,88	62,539
648,07	62,695
648,26	67,900
648,44	61,379
648,63	60,695
648,82	62,001
649,01	66,221
649,20	60,048
649,38	60,167
649,57	62,053
649,76	59,902
649,95	63,514
650,14	58,704
650,33	60,094
650,51	62,232
650,70	62,891
650,89	60,588
651,08	60,713
651,27	62,776
651,45	62,096
651,64	62,212
651,83	60,435
652,02	64,838
652,21	61,863
652,39	62,157
652,58	62,405
652,77	62,493
652,96	62,956
653,15	61,034
653,33	62,374
653,52	64,310
653,71	64,479
653,90	64,571
654,09	62,102
654,27	64,313
654,46	63,982
654,65	63,351
654,84	63,929
655,02	66,016
655,21	64,664
655,40	66,436
655,59	62,914
655,77	64,811
655,96	65,445
656,15	66,187
656,34	65,162
656,53	62,989
656,71	64,497
656,90	63,436
657,09	64,982
657,28	65,370
657,46	63,395
657,65	62,118
657,84	63,061
658,03	63,428
658,21	64,567
658,40	63,428
658,59	61,605
658,78	64,014
658,96	61,332
659,15	63,055
659,34	61,673
659,52	62,561
659,71	64,089
659,90	61,090
660,09	63,668
660,27	63,234
660,46	64,401
660,65	62,265
660,84	60,079
661,02	64,345
661,21	64,685
661,40	62,482
661,58	62,845
661,77	62,402
661,96	60,059
662,15	63,414
662,33	59,717
662,52	62,142
662,71	64,414
662,89	61,662
663,08	60,993
663,27	63,610
663,45	62,028
663,64	62,398
663,83	59,211
664,02	61,575
664,20	63,904
664,39	59,786
664,58	61,463
664,76	62,631
664,95	62,193
665,14	62,003
665,32	59,620
665,51	62,345
665,70	62,286
665,88	64,320
666,07	63,597
666,26	64,987
666,44	65,392
666,63	61,031
666,82	60,664
667,00	64,188
667,19	61,718
667,38	62,576
667,56	64,694
667,75	62,849
667,94	62,345
668,12	61,742
668,31	64,315
668,50	63,617
668,68	64,521
668,87	61,635
669,06	62,542
669,24	64,748
669,43	63,953
669,62	60,082
669,80	59,554
669,99	62,973
670,18	63,336
670,36	60,913
670,55	63,759
670,74	62,226
670,92	59,495
671,11	62,384
671,29	60,652
671,48	63,755
671,67	63,958
671,85	64,640
672,04	61,393
672,23	61,029
672,41	60,734
672,60	62,382
672,78	62,536
672,97	62,129
673,16	62,442
673,34	63,303
673,53	61,712
673,71	63,037
673,90	64,407
674,09	63,327
674,27	59,447
674,46	62,848
674,64	63,622
674,83	62,436
675,02	60,464
675,20	62,143
675,39	62,628
675,57	62,389
675,76	61,759
675,95	65,307
676,13	63,348
676,32	63,396
676,50	63,858
676,69	60,791
676,88	61,813
677,06	61,739
677,25	62,026
677,43	66,389
677,62	64,501
677,80	62,295
677,99	59,909
678,18	64,344
678,36	65,795
678,55	61,888
678,73	61,641
678,92	63,919
679,10	63,602
679,29	61,388
679,48	61,607
679,66	61,072
679,85	63,384
680,03	61,513
680,22	61,439
680,40	62,181
680,59	62,911
680,77	61,282
680,96	61,863
681,15	61,125
681,33	65,871
681,52	61,536
681,70	63,688
681,89	65,417
682,07	63,902
682,26	62,614
682,44	62,793
682,63	64,708
682,81	63,301
683,00	63,299
683,18	60,361
683,37	65,263
683,55	61,585
683,74	65,149
683,92	68,635
684,11	64,686
684,29	62,963
684,48	61,109
684,67	60,025
684,85	63,079
685,04	63,295
685,22	63,177
685,41	61,881
685,59	64,111
685,78	61,274
685,96	60,432
686,15	60,754
686,33	61,131
686,52	62,118
686,70	62,888
686,89	62,748
687,07	63,394
687,26	62,600
687,44	63,978
687,62	63,800
687,81	64,139
687,99	62,761
688,18	63,064
688,36	63,353
688,55	64,789
688,73	62,898
688,92	60,907
689,10	62,335
689,29	63,824
689,47	64,088
689,66	62,692
689,84	61,470
690,03	63,384
690,21	63,633
690,40	62,587
690,58	60,956
690,76	60,535
690,95	64,773
691,13	62,862
691,32	61,685
691,50	64,375
691,69	65,098
691,87	61,424
692,06	63,055
692,24	61,546
692,43	64,267
692,61	59,785
692,79	61,857
692,98	60,037
693,16	64,250
693,35	60,329
693,53	63,199
693,72	61,433
693,90	64,512
694,08	60,908
694,27	60,421
694,45	66,273
694,64	65,101
694,82	60,566
695,01	61,366
695,19	62,521
695,37	62,869
695,56	61,406
695,74	62,523
695,93	63,455
696,11	61,858
696,29	62,899
696,48	63,592
696,66	64,241
696,85	63,957
697,03	60,722
697,21	64,655
697,40	63,445
697,58	63,105
697,77	61,660
697,95	64,650
698,13	64,451
698,32	61,891
698,50	62,442
698,69	60,975
698,87	63,399
699,05	62,250
699,24	60,712
699,42	61,448
699,60	59,875
699,79	60,747
699,97	61,370
700,16	59,061
700,34	62,662
700,52	63,247
700,71	61,597
700,89	62,473
701,07	62,506
701,26	62,179
701,44	59,905
701,63	61,269
701,81	62,230
701,99	64,921
702,18	60,012
702,36	64,116
702,54	64,158
702,73	61,218
702,91	61,070
703,09	61,940
703,28	61,330
703,46	62,192
703,64	61,433
703,83	62,145
704,01	63,212
704,19	61,483
704,38	61,307
704,56	61,536
704,74	64,366
704,93	63,116
705,11	62,945
705,29	60,893
705,48	67,505
705,66	64,281
705,84	63,033
706,03	59,924
706,21	62,805
706,39	60,871
706,58	59,998
706,76	60,112
706,94	63,508
707,12	60,699
707,31	59,563
707,49	60,701
707,67	62,141
707,86	62,897
708,04	60,050
708,22	60,822
708,41	62,223
708,59	61,467
708,77	60,643
708,95	61,709
709,14	65,304
709,32	62,895
709,50	59,740
709,69	58,878
709,87	60,253
710,05	62,109
710,23	59,599
710,42	61,095
710,60	62,142
710,78	63,464
710,97	61,331
711,15	61,776
711,33	63,432
711,51	61,257
711,70	60,151
711,88	58,958
712,06	62,496
712,24	61,653
712,43	61,908
712,61	61,019
712,79	61,784
712,97	61,106
713,16	60,930
713,34	60,280
713,52	61,938
713,70	63,282
713,89	60,393
714,07	61,735
714,25	63,191
714,43	63,796
714,62	58,622
714,80	61,343
714,98	60,009
715,16	61,027
715,35	60,401
715,53	59,356
715,71	63,994
715,89	64,709
716,07	61,061
716,26	64,697
716,44	62,442
716,62	62,857
716,80	62,574
716,99	61,820
717,17	65,858
717,35	61,826
717,53	60,571
717,71	61,180
717,90	62,555
718,08	62,829
718,26	58,106
718,44	62,007
718,62	64,001
718,81	63,916
718,99	60,669
719,17	61,014
719,35	61,463
719,53	61,969
719,72	60,398
719,90	60,744
720,08	62,257
720,26	63,729
720,44	61,833
720,62	60,493
720,81	65,580
720,99	65,319
721,17	59,782
721,35	62,950
721,53	60,555
721,72	65,767
721,90	63,153
722,08	60,760
722,26	63,831
722,44	61,464
722,62	60,935
722,81	61,071
722,99	61,614
723,17	62,626
723,35	61,783
723,53	62,255
723,71	64,782
723,89	64,960
724,08	58,293
724,26	59,818
724,44	62,251
724,62	64,640
724,80	62,320
724,98	62,718
725,16	64,572
725,35	62,013
725,53	60,799
725,71	60,364
725,89	64,307
726,07	68,520
726,25	63,691
726,43	59,168
726,61	61,525
726,80	62,905
726,98	60,069
727,16	61,318
727,34	61,512
727,52	62,641
727,70	59,256
727,88	62,682
728,06	58,723
728,25	61,278
728,43	61,652
728,61	60,301
728,79	60,173
728,97	64,798
729,15	60,685
729,33	60,154
729,51	64,411
729,69	62,216
729,87	63,060
730,06	63,171
730,24	61,701
730,42	64,400
730,60	59,959
730,78	61,810
730,96	62,230
731,14	61,711
731,32	61,100
731,50	59,584
731,68	62,095
731,86	64,189
732,04	61,604
732,22	60,470
732,41	64,479
732,59	61,108
732,77	63,166
732,95	64,454
733,13	64,215
733,31	61,198
733,49	59,166
733,67	63,560
733,85	65,138
734,03	61,652
734,21	62,711
734,39	60,849
734,57	64,702
734,75	63,321
734,93	62,085
735,11	62,272
735,29	60,108
735,47	63,644
735,65	61,515
735,84	59,967
736,02	63,176
736,20	66,519
736,38	63,169
736,56	62,400
736,74	63,455
736,92	61,740
737,10	61,764
737,28	62,219
737,46	61,882
737,64	62,202
737,82	62,506
738,00	62,948
738,18	64,981
738,36	63,322
738,54	60,137
738,72	60,011
738,90	63,983
739,08	64,098
739,26	57,558
739,44	62,956
739,62	64,118
739,80	65,204
739,98	61,414
740,16	61,679
740,34	61,226
740,52	65,798
740,70	62,828
740,88	60,496
741,06	63,112
741,24	62,367
741,42	62,849
741,60	61,593
741,78	64,664
741,96	63,247
742,14	60,567
742,32	60,465
742,50	63,258
742,68	62,111
742,86	62,514
743,04	57,960
743,21	64,870
743,39	65,151
743,57	62,634
743,75	59,970
743,93	61,565
744,11	56,679
744,29	61,273
744,47	62,895
744,65	63,204
744,83	61,425
745,01	60,290
745,19	61,616
745,37	67,143
745,55	64,411
745,73	65,337
745,91	61,373
746,09	61,297
746,27	61,020
746,45	60,216
746,62	60,209
746,80	60,737
746,98	62,917
747,16	59,756
747,34	61,177
747,52	61,273
747,70	63,292
747,88	61,089
748,06	60,337
748,24	63,621
748,42	63,751
748,60	62,534
748,78	59,120
748,95	65,501
749,13	67,942
749,31	63,470
749,49	61,506
749,67	63,368
749,85	63,924
750,03	61,088
750,21	63,927
750,39	62,697
750,57	63,129
750,74	62,533
750,92	60,846
751,10	65,225
751,28	62,487
751,46	61,664
751,64	62,998
751,82	63,004
752,00	65,313
752,17	61,255
752,35	59,496
752,53	61,570
752,71	63,591
752,89	60,510
753,07	61,959
753,25	64,277
753,43	62,121
753,60	64,181
753,78	63,901
753,96	65,023
754,14	63,545
754,32	60,743
754,50	63,493
754,68	64,081
754,85	62,175
755,03	61,769
755,21	62,709
755,39	68,068
755,57	65,068
755,75	60,717
755,92	58,984
756,10	63,623
756,28	63,569
756,46	61,069
756,64	63,300
756,82	63,385
756,99	64,006
757,17	60,370
757,35	60,980
757,53	66,520
757,71	66,480
757,89	61,482
758,06	62,908
758,24	62,543
758,42	64,117
758,60	60,505
758,78	59,017
758,95	64,157
759,13	63,524
759,31	61,761
759,49	61,004
759,67	61,837
759,84	62,565
760,02	63,198
760,20	60,577
760,38	64,686
760,56	61,018
760,73	63,667
760,91	63,674
761,09	63,909
761,27	61,742
761,45	62,608
761,62	61,556
761,80	61,111
761,98	64,494
762,16	61,369
762,33	60,613
762,51	65,141
762,69	62,328
762,87	61,140
763,05	63,118
763,22	59,863
763,40	61,073
763,58	58,948
763,76	60,028
763,93	63,292
764,11	63,550
764,29	60,892
764,47	62,594
764,64	64,687
764,82	65,251
765,00	60,317
765,18	59,424
765,35	62,249
765,53	63,943
765,71	63,189
765,89	59,861
766,06	60,905
766,24	63,034
766,42	63,380
766,60	58,900
766,77	60,261
766,95	63,436
767,13	62,919
767,30	60,711
767,48	61,279
767,66	62,470
767,84	59,565
768,01	64,413
768,19	63,078
768,37	63,821
768,54	63,953
768,72	62,683
768,90	62,547
769,08	64,796
769,25	62,890
769,43	60,597
769,61	59,581
769,78	61,112
769,96	60,391
770,14	63,981
770,31	63,083
770,49	64,956
770,67	61,295
770,85	60,117
771,02	63,082
771,20	62,664
771,38	66,270
771,55	61,756
771,73	63,223
771,91	63,108
772,08	65,126
772,26	62,117
772,44	63,628
772,61	63,106
772,79	59,412
772,97	58,247
773,14	58,355
773,32	66,353
773,50	61,412
773,67	59,678
773,85	64,663
774,03	67,314
774,20	62,521
774,38	60,316
774,56	63,703
774,73	61,229
774,91	60,982
775,09	62,438
775,26	65,121
775,44	63,120
775,61	64,349
775,79	61,956
775,97	65,791
776,14	63,366
776,32	62,868
776,50	63,742
776,67	66,286
776,85	63,529
777,03	60,590
777,20	61,593
777,38	62,417
777,55	63,532
777,73	60,590
777,91	59,914
778,08	63,553
778,26	61,325
778,43	63,767
778,61	61,150
778,79	62,274
778,96	60,663
779,14	60,943
779,32	63,968
779,49	64,720
779,67	67,096
779,84	60,798
780,02	64,554
780,20	58,944
780,37	64,671
780,55	61,545
780,72	65,249
780,90	61,884
781,07	64,597
781,25	64,577
781,43	63,102
781,60	65,238
781,78	65,005
781,95	61,906
782,13	62,257
782,30	62,044
782,48	63,276
782,66	61,006
782,83	61,628
783,01	71,218
783,18	66,783
783,36	62,488
783,53	64,289
783,71	62,445
783,89	63,280
784,06	63,074
784,24	60,028
784,41	68,335
784,59	62,585
784,76	65,047
784,94	61,387
785,11	65,201
785,29	64,265
785,46	61,958
785,64	61,330
785,82	66,003
785,99	65,520
786,17	63,147
786,34	64,224
786,52	67,940
786,69	68,324
786,87	60,255
787,04	60,996
787,22	62,577
787,39	66,919
787,57	65,041
787,74	62,427
787,92	68,456
788,09	64,344
788,27	61,693
788,44	58,882
788,62	64,167
788,79	63,749
788,97	67,192
789,14	61,571
789,32	61,461
789,49	65,853
789,67	65,024
789,84	66,422
790,02	65,243
790,19	62,607
790,37	66,872
790,54	64,583
790,72	69,153
790,89	69,190
791,07	65,876
791,24	60,191
791,42	65,885
791,59	65,829
791,77	64,357
791,94	63,266
792,12	63,312
792,29	66,768
792,47	64,314
792,64	66,190
792,81	66,130
792,99	63,338
793,16	66,211
793,34	64,323
793,51	63,243
793,69	66,645
793,86	62,113
794,04	62,448
794,21	68,026
794,39	62,558
794,56	64,292
794,73	62,650
794,91	68,392
795,08	66,442
795,26	60,603
795,43	62,549
795,61	66,960
795,78	68,734
795,95	67,569
796,13	63,307
796,30	67,427
796,48	67,035
796,65	63,679
796,83	63,150
797,00	70,195
797,17	64,519
797,35	63,639
797,52	63,856
797,70	71,558
797,87	66,191
798,04	63,867
798,22	62,837
798,39	64,568
798,57	63,326
798,74	64,150
798,91	63,880
799,09	65,542
799,26	68,838
799,44	63,992
799,61	66,720
799,78	65,440
799,96	67,882
800,13	61,613
800,31	63,783
800,48	69,591
800,65	70,605
800,83	60,287
801,00	66,570
801,17	64,894
801,35	70,452
801,52	62,484
801,70	67,021
801,87	65,012
802,04	68,846
802,22	60,309
802,39	59,514
802,56	72,240
802,74	66,446
802,91	63,962
803,08	65,022
803,26	65,578
803,43	70,808
803,61	65,296
803,78	65,506
803,95	68,150
804,13	69,721
804,30	62,572
804,47	67,418
804,65	66,935
804,82	63,711
804,99	65,542
805,17	65,653
805,34	75,563
805,51	70,124
805,69	61,767
805,86	63,035
806,03	72,333
806,21	71,042
806,38	64,665
806,55	70,248
806,72	69,062
806,90	74,781
807,07	70,927
807,24	66,484
807,42	63,104
807,59	66,519
807,76	62,380
807,94	65,698
808,11	70,383
808,28	72,700
808,45	66,146
808,63	69,944
808,80	72,150
808,97	64,841
809,15	63,166
809,32	66,856
809,49	62,472
809,67	67,591
809,84	64,536
810,01	70,544
810,18	74,212
810,36	69,644
810,53	63,278
810,70	67,359
810,87	69,005
811,05	68,413
811,22	72,068
811,39	66,753
811,57	68,076
811,74	67,735
811,91	67,295
812,08	66,138
812,26	66,354
812,43	68,125
812,60	65,488
812,77	68,225
812,95	75,827
813,12	66,862
813,29	62,744
813,46	67,694
813,64	72,058
813,81	68,762
813,98	68,563
814,15	67,895
814,32	73,061
814,50	70,513
814,67	70,701
814,84	65,605
815,01	68,435
815,19	58,231
815,36	60,202
815,53	64,973
815,70	69,425
815,87	60,074
816,05	59,713
816,22	69,369
816,39	71,516
816,56	76,667
816,74	70,975
816,91	70,673
817,08	72,877
817,25	72,604
817,42	64,794
817,60	64,905
817,77	71,452
817,94	71,655
818,11	67,549
818,28	62,894
818,45	68,264
818,63	71,313
818,80	67,253
818,97	69,429
819,14	79,136
819,31	76,200
819,49	72,324
819,66	64,106
819,83	66,994
820,00	71,207
820,17	62,530
820,34	72,319
820,52	72,821
820,69	74,638
820,86	69,179
821,03	66,407
821,20	72,376
821,37	72,795
821,55	60,912
821,72	67,336
821,89	69,713
822,06	77,955
822,23	67,323
822,40	65,613
822,57	78,181
822,75	77,355
822,92	61,343
823,09	66,143
823,26	75,184
823,43	72,408
823,60	65,892
823,77	66,657
823,94	69,063
824,12	77,901
824,29	64,196
824,46	68,363
824,63	82,463
824,80	76,626
824,97	72,509
825,14	64,616
825,31	74,410
825,49	67,787
825,66	63,632
825,83	62,162
826,00	74,080
826,17	81,117
826,34	69,904
826,51	61,033
826,68	67,201
826,85	69,424
827,02	65,994
827,20	59,914
827,37	74,678
827,54	75,879
827,71	71,700
827,88	71,150
828,05	77,034
828,22	65,634
828,39	71,892
828,56	70,205
828,73	71,741
828,90	74,804
829,07	64,384
829,25	71,183
829,42	75,081
829,59	66,974
829,76	72,223
829,93	69,149
830,10	74,110
830,27	67,363
830,44	69,068
830,61	69,373
830,78	83,576
830,95	74,014
831,12	71,123
831,29	69,325
831,46	68,524
831,63	70,207
831,80	65,322
831,97	71,820
832,14	81,301
832,31	84,506
832,48	68,884
832,65	72,216
832,83	69,572
833,00	73,995
833,17	64,220
833,34	75,130
833,51	79,579
833,68	82,804
833,85	68,107
834,02	75,796
834,19	75,733
834,36	78,715
834,53	65,457
834,70	65,796
834,87	82,192
835,04	73,822
835,21	69,188
835,38	67,390
835,55	75,489
835,72	90,222
835,89	72,499
836,06	68,825
836,23	90,153
836,40	65,313
836,57	65,998
836,74	80,467
836,91	80,648
837,08	81,268
837,25	72,915
837,42	56,179
837,59	66,966
837,76	79,101
837,93	69,106
838,09	62,553
838,26	78,281
838,43	85,514
838,60	71,053
838,77	68,854
838,94	80,246
839,11	70,095
839,28	67,633
839,45	68,233
839,62	76,862
839,79	73,477
839,96	76,980
840,13	78,635
840,30	64,349
840,47	67,097
840,64	66,238
840,81	76,521
840,98	73,691
841,15	87,990
841,32	64,245
841,48	79,863
841,65	76,056
841,82	74,010
841,99	71,832
842,16	55,243
842,33	71,290
842,50	80,069
842,67	67,600
842,84	69,668
843,01	80,733
843,18	74,540
843,35	64,564
843,52	65,673
843,68	81,853
843,85	75,094
844,02	67,985
844,19	63,468
844,36	85,729
844,53	70,249
844,70	67,836
844,87	86,469
845,04	86,114
845,21	68,694
845,37	88,529
845,54	72,728
845,71	82,255
845,88	104,995
846,05	64,498
846,22	63,081
846,39	83,170
846,56	86,449
846,72	61,116
846,89	68,428
847,06	86,758
847,23	84,278
847,40	68,419
847,57	61,940
847,74	78,839
847,90	100,210
848,07	69,151
848,24	68,729
848,41	81,541
848,58	89,284
848,75	75,242
848,92	63,451
849,08	75,634
849,25	69,456
849,42	57,791
849,59	80,045
849,76	85,103
849,93	89,077
850,09	77,287
850,26	58,203
850,43	104,178
850,60	72,514
850,77	64,348
850,94	72,938
851,10	82,853
851,27	65,787
851,44	73,718
851,61	62,457
851,78	98,954
851,95	88,004
852,11	67,823
852,28	69,506
852,45	88,950
852,62	91,632
852,79	75,220
852,95	59,020
853,12	95,819
853,29	79,861
853,46	62,597
853,63	77,735
853,79	63,433
853,96	80,094
854,13	90,133
854,30	74,115
854,46	111,919
854,63	74,810
854,80	69,632
854,97	75,191
855,14	82,674
855,30	80,424
855,47	56,452
855,64	78,612
855,81	76,292
855,97	90,372
856,14	86,613
856,31	62,115
856,48	104,694
856,65	108,613
856,81	75,321
856,98	66,873
857,15	68,993
857,32	99,817
857,48	76,301
857,65	71,397
857,82	84,053
857,99	88,257
858,15	71,206
858,32	68,392
858,49	88,243
858,65	117,080
858,82	87,348
858,99	81,582
859,16	102,740
859,32	100,331
859,49	76,786
859,66	63,580
859,83	84,024
859,99	89,474
860,16	69,111
860,33	67,317
860,49	93,130
860,66	83,428
860,83	70,337
861,00	66,115
861,16	95,670
861,33	100,197
861,50	71,781
861,66	72,941
861,83	98,521
862,00	89,127
862,16	79,690
862,33	64,511
862,50	137,611
862,67	101,873
862,83	69,405
863,00	90,275
863,17	113,731
863,33	87,610
863,50	38,468
863,67	76,911
863,83	115,454
864,00	94,713
864,17	55,006
864,33	69,964
864,50	82,044
864,67	75,342
864,83	69,866
865,00	68,389
865,17	71,849
865,33	95,374
865,50	54,083
865,67	62,860
865,83	96,637
866,00	140,594
866,17	74,497
866,33	78,750
866,50	115,867
866,66	97,973
866,83	80,224
867,00	105,017
867,16	133,307
867,33	143,162
867,50	59,919
867,66	69,844
867,83	123,948
868,00	88,656
868,16	62,188
868,33	80,524
868,49	75,047
868,66	104,301
868,83	66,308
868,99	87,336
869,16	108,397
869,32	130,664
869,49	81,503
869,66	76,059
869,82	125,283
869,99	106,057
870,15	62,608
870,32	114,460
870,49	134,123
870,65	177,861
870,82	82,559
870,98	67,123
871,15	142,040
871,32	109,848
871,48	42,981
871,65	64,170
871,81	85,788
871,98	73,846
872,15	69,600
872,31	68,033
872,48	154,296
872,64	118,244
872,81	56,280
872,97	93,604
873,14	135,741
873,31	118,868
873,47	95,052
873,64	98,347
873,80	142,496
873,97	152,402
874,13	74,741
874,30	88,977
874,46	141,931
874,63	66,085
874,80	76,095
874,96	73,804
875,13	159,632
875,29	102,875
875,46	123,925
875,62	47,460
875,79	106,527
875,95	114,310
876,12	59,487
876,28	25,042
876,45	171,895
876,61	90,206
876,78	73,742
876,94	57,739
877,11	151,876
877,27	136,283
877,44	87,054
877,60	61,180
877,77	126,637
877,94	194,654
878,10	65,307
878,27	96,552
878,43	188,085
878,60	88,059
878,76	105,480
878,93	60,087
879,09	149,765
879,26	144,273
879,42	158,553
879,58	67,236
879,75	197,946
879,91	195,210
880,08	3,948
880,24	88,166
880,41	112,403
880,57	134,872
880,74	60,475
880,90	105,825
881,07	84,125
881,23	214,075
881,40	88,219
881,56	105,676
881,73	142,686
881,89	130,981
882,06	10,058
882,22	232,642
882,38	227,762
882,55	271,681
882,71	127,060
882,88	139,687
883,04	326,000
883,21	265,705
883,37	126,822
883,54	124,426
883,70	349,219
883,86	192,529
884,03	96,194
884,19	40,128
884,36	271,712
884,52	274,283
884,69	52,291
884,85	92,493
885,01	215,718
885,18	165,318
885,34	175,098
885,51	25,543
885,67	126,637
>>>>> Data<<<<< Espectral Procesado Extremo
