Fichero De Datos De SpectraSuite
++++++++++++++++++++++++++++++++++++
Fecha: Wed Apr 22 13:04:15 CEST 2009
Usuario: evoflor
Presente Oscuro Del Espectro: Sí
La Referencia de Presente Del Espectro De: Sí
Muestreados de los componentes de Número de espectros: 1
Espectrómetros: USB4F02353
Tiempo de integración (usec): 500000 (USB4F02353)
Promedio de Espectros Hechos un: 5 (USB4F02353)
El Alisar Del Furgón: 0 (USB4F02353)
Párrafo de de Corregir del la del del de Eléctrica del obscuridad: Sí (USB4F02353)
Estrobo/Lámpara Permitido: No (USB4F02353)
Correct for Detector Non-linearity: No (USB4F02353)
Párrafo de de Corregir del la del del de Externa del luz: No (USB4F02353)
Procesado del espectro de Número de pixeles en: 3648
>>>>> Comienza Data<<<<< Espectral Procesado Del EL
177,79	308,748
178,00	308,748
178,22	308,748
178,44	1656,758
178,66	-578,952
178,88	426,596
179,09	-139,723
179,31	327,887
179,53	764,814
179,75	153,117
179,96	1175,302
180,18	-173,031
180,40	763,806
180,62	483,382
180,83	-273,409
181,05	-2387,012
181,27	-144435,000
181,49	-51,815
181,70	237,058
181,92	966,168
182,14	551,611
182,36	85,210
182,58	238,650
182,79	1556,853
183,01	-132,818
183,23	220,972
183,45	-247,800
183,66	-439,978
183,88	378,441
184,10	-2675,182
184,32	326,324
184,53	298,461
184,75	-288,971
184,97	53,965
185,18	-129,389
185,40	-741,995
185,62	181,362
185,84	93,308
186,05	120,882
186,27	-209,168
186,49	5035,962
186,71	37,893
186,92	183,356
187,14	-105,670
187,36	200,560
187,58	155,439
187,79	-125,129
188,01	337,303
188,23	-338,736
188,45	-36,873
188,66	415,781
188,88	-3657,000
189,10	-2326,350
189,31	-14,565
189,53	-15,630
189,75	498,034
189,97	295,904
190,18	-202,854
190,40	489,618
190,62	-80,441
190,83	-443,842
191,05	183,839
191,27	114,386
191,49	330,780
191,70	-785,264
191,92	-1163,008
192,14	-44,347
192,35	929,801
192,57	5849,571
192,79	-53,030
193,01	278,659
193,22	171,393
193,44	-341,698
193,66	78,665
193,87	116,563
194,09	-107,220
194,31	308,325
194,53	588,357
194,74	36,992
194,96	41,988
195,18	160,819
195,39	-364,472
195,61	-229,115
195,83	-462,685
196,04	186,042
196,26	-133,342
196,48	-71,241
196,70	448,181
196,91	109,500
197,13	276,797
197,35	49,300
197,56	692,368
197,78	2293,545
198,00	707,937
198,21	513,277
198,43	-687,994
198,65	178,854
198,86	406,241
199,08	131,262
199,30	184,889
199,51	-411,840
199,73	277,939
199,95	531,275
200,16	635,135
200,38	320,053
200,60	162,389
200,81	390,225
201,03	267,758
201,25	-2011,350
201,46	165,498
201,68	-15,707
201,90	3384,886
202,11	-499,752
202,33	180,135
202,55	286,687
202,76	-119,949
202,98	393,502
203,20	-54,014
203,41	-385,974
203,63	125,848
203,85	-158835,000
204,06	272,471
204,28	-194,060
204,50	241,010
204,71	325,150
204,93	-615,720
205,15	50,105
205,36	-394,904
205,58	215,038
205,80	-71,619
206,01	65,310
206,23	151,722
206,45	360,244
206,66	167,904
206,88	120,277
207,10	450,989
207,31	473,821
207,53	160,671
207,75	10,209
207,96	1729,366
208,18	-192,722
208,39	125,384
208,61	6029,571
208,83	-608,540
209,04	392,152
209,26	-553,618
209,48	294,304
209,69	295,379
209,91	886,267
210,13	71,042
210,34	290,884
210,56	256,745
210,77	-2256,969
210,99	189,906
211,21	6219,706
211,42	-281,803
211,64	-8,615
211,86	305,622
212,07	301,062
212,29	259,315
212,50	197,274
212,72	50,135
212,94	105,985
213,15	241,844
213,37	181,496
213,58	62,894
213,80	-3647,679
214,02	14478,529
214,23	337,473
214,45	337,820
214,67	-1015,061
214,88	-155,487
215,10	-273,301
215,31	110,993
215,53	35,761
215,75	335,713
215,96	1584,689
216,18	-145,986
216,39	180,855
216,61	726,059
216,83	773,371
217,04	1208,258
217,26	57,315
217,47	224,268
217,69	433,966
217,91	47,590
218,12	-103035,000
218,34	212,081
218,55	617,069
218,77	-3,290
218,99	141,117
219,20	-258,068
219,42	574,139
219,63	-190,906
219,85	-154,140
220,06	50,135
220,28	213,322
220,50	79,058
220,71	80,395
220,93	3879,906
221,14	-2371,350
221,36	14,656
221,58	-66,245
221,79	266,913
222,01	1291,681
222,22	600,888
222,44	-692,865
222,65	192,910
222,87	298,846
223,09	137,041
223,30	109,848
223,52	192,717
223,73	258,256
223,95	75,401
224,16	171,619
224,38	468,092
224,60	111,614
224,81	19,803
225,03	171,955
225,24	210,154
225,46	96,404
225,67	43,729
225,89	85,386
226,10	483,840
226,32	853,080
226,54	22,433
226,75	55,201
226,97	232,957
227,18	209,395
227,40	51,407
227,61	68,265
227,83	47,709
228,04	122,851
228,26	34,875
228,47	33,500
228,69	312,860
228,91	132,706
229,12	110,714
229,34	53,519
229,55	81,230
229,77	35,314
229,98	10,434
230,20	46,859
230,41	50,917
230,63	135,070
230,84	18,538
231,06	45,998
231,27	41,003
231,49	72,566
231,71	14,561
231,92	25,455
232,14	40,181
232,35	112,325
232,57	69,744
232,78	32,692
233,00	9,926
233,21	21,833
233,43	31,085
233,64	29,306
233,86	46,193
234,07	40,523
234,29	10,790
234,50	11,565
234,72	35,013
234,93	31,934
235,15	24,911
235,36	36,014
235,58	41,787
235,79	49,730
236,01	19,211
236,22	11,581
236,44	69,078
236,65	23,690
236,87	14,658
237,08	5,213
237,30	-5,048
237,51	38,875
237,73	-5,399
237,94	9,145
238,16	29,469
238,37	13,381
238,59	13,373
238,80	18,687
239,02	14,990
239,23	26,948
239,45	-3,727
239,66	22,046
239,88	26,453
240,09	15,061
240,31	-1,016
240,52	16,044
240,74	35,300
240,95	8,420
241,17	15,011
241,38	7,376
241,60	14,658
241,81	26,752
242,03	9,499
242,24	9,299
242,46	21,599
242,67	4,591
242,89	10,681
243,10	17,526
243,32	17,381
243,53	19,809
243,75	5,400
243,96	9,918
244,18	7,678
244,39	18,085
244,60	6,547
244,82	-1,197
245,03	16,736
245,25	14,239
245,46	30,631
245,68	7,196
245,89	28,688
246,11	12,726
246,32	10,967
246,54	4,678
246,75	8,328
246,97	9,970
247,18	19,329
247,39	7,359
247,61	9,027
247,82	17,331
248,04	5,784
248,25	6,848
248,47	10,973
248,68	13,800
248,90	6,149
249,11	4,408
249,33	24,626
249,54	9,793
249,75	8,587
249,97	4,434
250,18	21,463
250,40	18,275
250,61	-12,823
250,83	3,052
251,04	3,313
251,25	12,132
251,47	2,389
251,68	8,043
251,90	10,707
252,11	13,645
252,33	5,226
252,54	7,931
252,76	7,350
252,97	2,928
253,18	-1,483
253,40	6,170
253,61	5,059
253,83	9,350
254,04	4,177
254,25	5,178
254,47	5,261
254,68	5,803
254,90	4,460
255,11	9,978
255,33	3,447
255,54	6,499
255,75	6,241
255,97	7,949
256,18	5,173
256,40	4,348
256,61	8,691
256,82	0,755
257,04	12,059
257,25	3,781
257,47	6,152
257,68	2,502
257,89	9,965
258,11	10,300
258,32	6,124
258,54	7,687
258,75	14,806
258,96	13,395
259,18	6,456
259,39	0,837
259,61	12,088
259,82	4,482
260,03	7,947
260,25	3,945
260,46	6,364
260,68	3,231
260,89	0,979
261,10	7,186
261,32	7,076
261,53	9,699
261,75	9,488
261,96	-1,394
262,17	8,446
262,39	13,859
262,60	1,566
262,81	-0,977
263,03	14,875
263,24	7,593
263,46	1,332
263,67	2,314
263,88	6,926
264,10	9,613
264,31	0,435
264,52	3,766
264,74	9,679
264,95	5,178
265,17	8,198
265,38	10,397
265,59	10,794
265,81	7,329
266,02	1,294
266,23	2,090
266,45	12,697
266,66	11,482
266,87	8,074
267,09	0,775
267,30	8,855
267,52	12,012
267,73	4,139
267,94	5,185
268,16	8,638
268,37	3,205
268,58	5,213
268,80	5,101
269,01	5,107
269,22	11,247
269,44	6,454
269,65	2,164
269,86	5,418
270,08	5,951
270,29	3,236
270,50	6,148
270,72	8,920
270,93	3,572
271,14	1,880
271,36	2,366
271,57	8,503
271,78	4,620
272,00	8,315
272,21	7,324
272,42	10,221
272,64	5,732
272,85	3,500
273,06	1,531
273,28	7,925
273,49	5,149
273,70	5,961
273,92	5,571
274,13	7,051
274,34	4,881
274,56	6,363
274,77	4,930
274,98	8,019
275,20	8,324
275,41	7,961
275,62	8,846
275,84	5,842
276,05	14,195
276,26	2,133
276,47	-1,822
276,69	8,768
276,90	6,789
277,11	1,026
277,33	3,139
277,54	8,058
277,75	7,746
277,97	4,991
278,18	3,923
278,39	7,923
278,61	3,613
278,82	7,722
279,03	4,398
279,24	7,187
279,46	5,468
279,67	7,496
279,88	5,131
280,10	10,720
280,31	0,858
280,52	6,115
280,73	1,928
280,95	6,953
281,16	5,448
281,37	1,356
281,59	8,936
281,80	14,808
282,01	5,207
282,22	1,199
282,44	0,996
282,65	13,944
282,86	10,739
283,08	3,939
283,29	2,744
283,50	6,545
283,71	5,272
283,93	5,391
284,14	7,091
284,35	5,562
284,56	8,507
284,78	2,737
284,99	5,476
285,20	12,202
285,42	8,310
285,63	2,740
285,84	-0,877
286,05	2,844
286,27	2,589
286,48	2,959
286,69	5,364
286,90	3,646
287,12	4,257
287,33	-0,665
287,54	4,005
287,75	7,541
287,97	4,615
288,18	1,851
288,39	2,822
288,60	6,999
288,82	4,299
289,03	3,067
289,24	5,771
289,45	7,811
289,67	6,207
289,88	2,854
290,09	3,557
290,30	6,162
290,52	4,211
290,73	2,167
290,94	0,618
291,15	5,480
291,37	5,584
291,58	2,281
291,79	2,255
292,00	5,262
292,21	8,447
292,43	2,580
292,64	0,728
292,85	3,173
293,06	9,958
293,28	2,247
293,49	-0,014
293,70	9,755
293,91	3,373
294,12	3,138
294,34	2,494
294,55	6,037
294,76	4,303
294,97	6,542
295,19	1,167
295,40	8,405
295,61	5,914
295,82	1,378
296,03	3,431
296,25	3,356
296,46	2,339
296,67	1,272
296,88	-0,114
297,09	7,309
297,31	5,321
297,52	4,430
297,73	2,295
297,94	5,974
298,15	5,902
298,37	2,472
298,58	6,547
298,79	5,858
299,00	3,365
299,21	2,106
299,43	1,981
299,64	7,691
299,85	4,665
300,06	3,573
300,27	0,881
300,49	7,111
300,70	6,588
300,91	3,272
301,12	2,001
301,33	8,925
301,54	2,717
301,76	3,575
301,97	0,995
302,18	3,047
302,39	6,588
302,60	13,870
302,82	4,187
303,03	7,986
303,24	4,055
303,45	6,358
303,66	4,327
303,87	3,448
304,09	6,972
304,30	2,150
304,51	3,781
304,72	4,906
304,93	6,012
305,14	3,992
305,36	0,963
305,57	1,346
305,78	7,069
305,99	3,983
306,20	0,914
306,41	1,379
306,62	4,042
306,84	1,018
307,05	1,554
307,26	5,457
307,47	11,797
307,68	1,615
307,89	2,967
308,11	5,692
308,32	3,290
308,53	4,007
308,74	2,105
308,95	3,569
309,16	7,249
309,37	8,651
309,59	0,483
309,80	2,808
310,01	5,511
310,22	3,619
310,43	0,789
310,64	8,271
310,85	8,236
311,06	2,856
311,28	4,726
311,49	2,917
311,70	8,789
311,91	2,224
312,12	-0,273
312,33	4,601
312,54	7,098
312,75	3,053
312,97	-0,409
313,18	5,483
313,39	3,128
313,60	2,098
313,81	3,672
314,02	5,696
314,23	2,374
314,44	0,686
314,65	3,807
314,87	1,141
315,08	0,893
315,29	4,868
315,50	5,624
315,71	7,855
315,92	8,822
316,13	2,634
316,34	5,009
316,55	6,855
316,77	-1,199
316,98	3,442
317,19	2,042
317,40	7,183
317,61	10,399
317,82	2,312
318,03	0,377
318,24	6,826
318,45	7,879
318,66	2,369
318,87	-0,257
319,09	7,136
319,30	4,825
319,51	7,434
319,72	4,816
319,93	5,947
320,14	7,953
320,35	6,011
320,56	2,991
320,77	3,987
320,98	10,366
321,19	4,130
321,40	3,738
321,62	5,482
321,83	3,292
322,04	4,563
322,25	3,637
322,46	11,619
322,67	8,743
322,88	4,701
323,09	3,389
323,30	8,961
323,51	9,707
323,72	5,457
323,93	2,792
324,14	4,279
324,35	1,111
324,56	2,439
324,77	5,199
324,99	2,608
325,20	1,961
325,41	5,185
325,62	2,480
325,83	1,766
326,04	3,032
326,25	5,803
326,46	-0,083
326,67	6,059
326,88	6,399
327,09	3,844
327,30	1,208
327,51	5,845
327,72	3,222
327,93	6,317
328,14	0,476
328,35	5,429
328,56	5,615
328,77	2,770
328,98	4,954
329,19	5,382
329,40	8,271
329,61	0,844
329,82	-0,375
330,04	6,444
330,25	3,456
330,46	5,443
330,67	1,953
330,88	6,509
331,09	4,726
331,30	2,957
331,51	3,613
331,72	4,467
331,93	6,029
332,14	1,324
332,35	4,641
332,56	5,150
332,77	7,034
332,98	-0,329
333,19	1,301
333,40	6,676
333,61	4,722
333,82	5,655
334,03	5,564
334,24	8,495
334,45	3,847
334,66	5,292
334,87	5,395
335,08	0,755
335,29	2,955
335,50	1,593
335,71	3,107
335,92	7,738
336,13	7,161
336,34	3,100
336,55	4,599
336,76	5,054
336,97	4,049
337,18	1,489
337,39	3,095
337,60	5,928
337,81	4,810
338,02	4,915
338,23	3,532
338,44	4,845
338,65	3,489
338,86	7,169
339,07	3,686
339,28	7,556
339,49	5,018
339,70	0,293
339,91	3,284
340,11	8,447
340,32	2,537
340,53	1,406
340,74	1,323
340,95	1,707
341,16	5,997
341,37	2,268
341,58	-1,426
341,79	3,831
342,00	2,945
342,21	4,104
342,42	2,979
342,63	8,133
342,84	3,297
343,05	4,650
343,26	7,510
343,47	6,338
343,68	0,606
343,89	4,043
344,10	5,859
344,31	6,689
344,52	4,916
344,73	0,069
344,94	5,118
345,14	7,072
345,35	5,106
345,56	3,715
345,77	3,437
345,98	6,516
346,19	4,884
346,40	2,506
346,61	3,524
346,82	4,520
347,03	5,616
347,24	5,230
347,45	4,270
347,66	10,561
347,87	3,994
348,08	5,533
348,28	0,727
348,49	4,735
348,70	7,338
348,91	5,622
349,12	0,556
349,33	17,389
349,54	3,899
349,75	6,914
349,96	5,065
350,17	8,219
350,38	2,733
350,59	6,387
350,80	5,746
351,00	4,939
351,21	5,727
351,42	4,787
351,63	4,633
351,84	5,979
352,05	9,040
352,26	3,880
352,47	2,175
352,68	5,568
352,89	3,971
353,09	5,254
353,30	3,174
353,51	4,269
353,72	9,638
353,93	8,460
354,14	1,402
354,35	2,418
354,56	5,675
354,77	2,952
354,98	-0,853
355,18	5,216
355,39	13,219
355,60	2,670
355,81	5,500
356,02	6,904
356,23	6,590
356,44	4,063
356,65	6,833
356,85	10,248
357,06	8,413
357,27	4,352
357,48	2,054
357,69	6,263
357,90	6,083
358,11	0,565
358,32	1,596
358,52	8,967
358,73	6,514
358,94	5,999
359,15	6,964
359,36	6,146
359,57	2,988
359,78	4,336
359,98	2,837
360,19	1,581
360,40	8,034
360,61	5,274
360,82	2,555
361,03	9,296
361,24	8,769
361,44	3,675
361,65	4,465
361,86	4,006
362,07	5,518
362,28	1,592
362,49	-1,476
362,70	7,094
362,90	5,662
363,11	-1,054
363,32	2,788
363,53	5,645
363,74	8,728
363,95	6,014
364,15	7,498
364,36	9,366
364,57	3,887
364,78	4,591
364,99	3,589
365,20	7,689
365,40	8,375
365,61	4,352
365,82	7,670
366,03	7,739
366,24	5,856
366,45	3,292
366,65	4,191
366,86	3,640
367,07	6,186
367,28	1,981
367,49	1,024
367,69	7,990
367,90	7,042
368,11	5,428
368,32	3,036
368,53	9,127
368,73	8,897
368,94	2,355
369,15	3,765
369,36	7,290
369,57	4,890
369,78	3,762
369,98	7,489
370,19	11,705
370,40	4,459
370,61	4,987
370,82	4,756
371,02	6,013
371,23	11,106
371,44	3,393
371,65	4,979
371,85	10,144
372,06	4,140
372,27	2,601
372,48	4,520
372,69	4,957
372,89	2,948
373,10	4,111
373,31	4,126
373,52	7,231
373,73	12,899
373,93	5,452
374,14	2,521
374,35	9,875
374,56	8,533
374,76	4,218
374,97	4,898
375,18	8,469
375,39	6,141
375,60	8,651
375,80	3,840
376,01	6,546
376,22	7,165
376,43	2,785
376,63	3,664
376,84	6,424
377,05	9,420
377,26	3,150
377,46	1,370
377,67	5,949
377,88	8,360
378,09	2,745
378,29	0,699
378,50	5,204
378,71	10,236
378,92	2,217
379,12	5,026
379,33	5,009
379,54	5,464
379,75	7,136
379,95	2,749
380,16	4,822
380,37	9,935
380,58	1,920
380,78	4,251
380,99	3,665
381,20	2,722
381,41	3,227
381,61	5,636
381,82	4,573
382,03	6,848
382,24	7,866
382,44	5,052
382,65	7,458
382,86	5,386
383,06	4,822
383,27	6,711
383,48	5,845
383,69	8,272
383,89	5,768
384,10	4,933
384,31	5,246
384,51	9,206
384,72	4,861
384,93	5,080
385,14	3,166
385,34	7,619
385,55	2,504
385,76	1,686
385,96	7,062
386,17	6,749
386,38	9,974
386,59	0,472
386,79	4,542
387,00	11,639
387,21	10,697
387,41	4,956
387,62	3,765
387,83	10,822
388,03	7,728
388,24	1,282
388,45	7,461
388,66	5,968
388,86	7,433
389,07	2,115
389,28	13,057
389,48	4,725
389,69	3,349
389,90	5,195
390,10	5,362
390,31	6,179
390,52	0,746
390,72	0,114
390,93	8,535
391,14	2,287
391,34	7,223
391,55	6,275
391,76	9,907
391,96	6,792
392,17	5,003
392,38	6,297
392,58	8,940
392,79	6,680
393,00	5,290
393,20	4,798
393,41	3,996
393,62	6,239
393,82	8,247
394,03	5,223
394,24	6,031
394,44	6,827
394,65	7,741
394,86	4,109
395,06	10,442
395,27	3,720
395,48	3,086
395,68	6,282
395,89	4,097
396,10	8,271
396,30	4,480
396,51	5,632
396,72	8,121
396,92	4,942
397,13	3,912
397,34	4,313
397,54	10,007
397,75	3,781
397,95	2,428
398,16	4,378
398,37	6,095
398,57	3,814
398,78	6,524
398,99	8,903
399,19	7,555
399,40	11,606
399,60	4,284
399,81	3,928
400,02	10,596
400,22	8,381
400,43	6,789
400,64	4,044
400,84	6,897
401,05	9,327
401,25	10,178
401,46	7,850
401,67	9,518
401,87	4,663
402,08	1,606
402,29	5,500
402,49	10,922
402,70	10,682
402,90	4,331
403,11	4,955
403,32	9,135
403,52	5,503
403,73	11,355
403,93	11,166
404,14	16,354
404,35	5,893
404,55	3,374
404,76	5,020
404,96	10,603
405,17	13,155
405,38	11,168
405,58	5,918
405,79	12,276
405,99	9,802
406,20	6,688
406,40	6,374
406,61	13,053
406,82	8,769
407,02	9,424
407,23	8,368
407,43	8,031
407,64	6,530
407,85	9,962
408,05	1,844
408,26	20,431
408,46	12,568
408,67	6,087
408,87	7,822
409,08	11,183
409,29	14,543
409,49	11,735
409,70	9,188
409,90	9,979
410,11	12,673
410,31	14,768
410,52	9,121
410,72	9,996
410,93	16,293
411,14	10,404
411,34	9,699
411,55	14,342
411,75	19,352
411,96	11,081
412,16	11,376
412,37	10,571
412,57	11,325
412,78	13,464
412,99	12,177
413,19	15,429
413,40	9,514
413,60	10,877
413,81	12,229
414,01	13,187
414,22	10,744
414,42	7,063
414,63	9,985
414,83	12,201
415,04	16,803
415,24	13,586
415,45	8,266
415,65	13,555
415,86	16,055
416,07	12,214
416,27	12,310
416,48	17,763
416,68	20,920
416,89	9,402
417,09	12,477
417,30	19,162
417,50	13,073
417,71	17,245
417,91	15,147
418,12	13,996
418,32	14,216
418,53	13,482
418,73	13,819
418,94	13,929
419,14	14,211
419,35	14,630
419,55	17,423
419,76	14,268
419,96	13,863
420,17	12,681
420,37	15,899
420,58	19,157
420,78	16,351
420,99	16,420
421,19	18,298
421,40	15,682
421,60	19,011
421,81	11,195
422,01	16,243
422,22	17,545
422,42	19,723
422,63	11,845
422,83	16,859
423,04	23,155
423,24	28,964
423,45	13,967
423,65	18,369
423,86	21,807
424,06	19,689
424,27	15,231
424,47	14,709
424,67	15,574
424,88	20,243
425,08	17,526
425,29	23,263
425,49	16,331
425,70	12,215
425,90	17,248
426,11	16,615
426,31	15,730
426,52	20,519
426,72	18,385
426,93	15,000
427,13	20,287
427,33	17,511
427,54	18,870
427,74	19,272
427,95	25,978
428,15	13,988
428,36	17,899
428,56	16,793
428,77	19,500
428,97	18,942
429,18	18,777
429,38	16,771
429,58	21,066
429,79	18,509
429,99	15,849
430,20	14,313
430,40	25,352
430,61	17,860
430,81	15,154
431,01	19,715
431,22	21,227
431,42	23,437
431,63	16,741
431,83	17,658
432,04	18,781
432,24	22,279
432,44	18,187
432,65	18,020
432,85	19,431
433,06	21,645
433,26	18,892
433,47	18,489
433,67	17,724
433,87	20,591
434,08	16,318
434,28	19,787
434,49	20,579
434,69	26,594
434,89	16,746
435,10	17,747
435,30	23,410
435,51	17,459
435,71	18,833
435,91	15,189
436,12	17,661
436,32	19,298
436,53	21,989
436,73	16,058
436,93	19,173
437,14	19,890
437,34	21,849
437,55	19,443
437,75	21,657
437,95	23,755
438,16	21,457
438,36	17,046
438,57	21,155
438,77	15,241
438,97	26,526
439,18	22,288
439,38	17,942
439,58	15,911
439,79	21,502
439,99	20,706
440,20	24,259
440,40	21,444
440,60	20,330
440,81	21,187
441,01	25,768
441,21	21,816
441,42	21,434
441,62	20,892
441,83	21,496
442,03	22,961
442,23	20,999
442,44	16,832
442,64	22,229
442,84	17,091
443,05	19,777
443,25	15,958
443,45	20,846
443,66	20,521
443,86	15,085
444,06	15,777
444,27	16,436
444,47	19,905
444,67	20,473
444,88	19,848
445,08	22,453
445,28	20,214
445,49	17,290
445,69	18,237
445,90	22,418
446,10	20,659
446,30	21,324
446,51	17,698
446,71	23,455
446,91	28,122
447,12	27,506
447,32	18,331
447,52	27,688
447,72	20,441
447,93	20,823
448,13	15,522
448,33	25,749
448,54	22,659
448,74	17,126
448,94	20,999
449,15	24,124
449,35	27,408
449,55	23,843
449,76	23,298
449,96	19,433
450,16	26,539
450,37	20,060
450,57	23,842
450,77	18,733
450,98	21,887
451,18	20,207
451,38	17,124
451,58	22,497
451,79	21,282
451,99	20,352
452,19	22,025
452,40	20,895
452,60	17,764
452,80	18,997
453,00	21,291
453,21	21,525
453,41	25,072
453,61	17,715
453,82	19,757
454,02	19,495
454,22	24,272
454,42	22,623
454,63	18,748
454,83	22,033
455,03	28,646
455,24	20,724
455,44	24,385
455,64	20,542
455,84	20,141
456,05	18,210
456,25	18,674
456,45	27,673
456,65	19,569
456,86	21,230
457,06	21,665
457,26	22,618
457,47	26,020
457,67	21,832
457,87	17,432
458,07	21,620
458,28	27,664
458,48	24,836
458,68	18,004
458,88	26,180
459,09	23,696
459,29	25,948
459,49	19,150
459,69	26,278
459,90	24,198
460,10	18,207
460,30	24,293
460,50	19,535
460,71	25,781
460,91	17,288
461,11	23,627
461,31	17,988
461,52	25,586
461,72	18,044
461,92	25,160
462,12	30,537
462,32	18,105
462,53	19,130
462,73	18,402
462,93	25,064
463,13	22,181
463,34	15,691
463,54	18,907
463,74	25,810
463,94	21,985
464,14	19,265
464,35	20,443
464,55	25,733
464,75	25,635
464,95	22,181
465,16	16,354
465,36	24,413
465,56	21,439
465,76	20,215
465,96	18,311
466,17	20,753
466,37	19,333
466,57	23,321
466,77	20,215
466,97	21,683
467,18	26,569
467,38	19,772
467,58	21,362
467,78	26,550
467,98	24,004
468,19	22,496
468,39	23,836
468,59	24,773
468,79	22,449
468,99	19,422
469,19	18,663
469,40	24,102
469,60	20,347
469,80	15,259
470,00	19,847
470,20	23,564
470,41	18,277
470,61	22,017
470,81	20,650
471,01	19,263
471,21	22,966
471,41	19,199
471,62	17,078
471,82	16,182
472,02	19,937
472,22	15,720
472,42	16,135
472,62	19,236
472,83	17,506
473,03	25,917
473,23	19,278
473,43	26,436
473,63	23,254
473,83	21,917
474,03	17,926
474,24	25,555
474,44	18,598
474,64	20,783
474,84	14,593
475,04	20,270
475,24	21,950
475,45	19,248
475,65	17,943
475,85	22,679
476,05	14,154
476,25	20,438
476,45	20,734
476,65	27,347
476,85	20,767
477,06	19,985
477,26	15,344
477,46	20,509
477,66	21,096
477,86	20,321
478,06	15,968
478,26	29,147
478,46	20,755
478,67	21,504
478,87	17,321
479,07	18,284
479,27	24,514
479,47	19,166
479,67	9,299
479,87	13,515
480,07	24,030
480,28	18,648
480,48	16,361
480,68	22,991
480,88	26,102
481,08	21,250
481,28	20,222
481,48	18,556
481,68	19,379
481,88	16,649
482,08	19,227
482,29	21,005
482,49	16,697
482,69	20,804
482,89	18,347
483,09	23,765
483,29	17,631
483,49	17,125
483,69	18,583
483,89	17,615
484,09	15,398
484,29	12,941
484,50	17,520
484,70	19,008
484,90	19,328
485,10	16,531
485,30	20,801
485,50	24,056
485,70	20,444
485,90	17,396
486,10	15,375
486,30	17,248
486,50	18,191
486,70	15,970
486,90	17,311
487,10	20,753
487,30	17,018
487,51	20,522
487,71	15,178
487,91	17,272
488,11	18,794
488,31	14,271
488,51	19,860
488,71	16,954
488,91	20,541
489,11	17,835
489,31	15,893
489,51	17,515
489,71	18,363
489,91	17,534
490,11	13,914
490,31	16,391
490,51	18,214
490,71	16,965
490,91	17,567
491,11	18,631
491,31	15,659
491,51	14,284
491,72	15,751
491,92	18,919
492,12	20,489
492,32	19,086
492,52	18,274
492,72	18,114
492,92	17,786
493,12	19,470
493,32	14,512
493,52	10,931
493,72	16,705
493,92	18,624
494,12	17,063
494,32	19,377
494,52	16,734
494,72	17,327
494,92	13,837
495,12	16,809
495,32	21,106
495,52	15,847
495,72	17,831
495,92	19,083
496,12	20,190
496,32	13,607
496,52	14,235
496,72	16,880
496,92	19,553
497,12	14,513
497,32	16,336
497,52	16,524
497,72	22,065
497,92	16,149
498,12	15,878
498,32	17,408
498,52	16,117
498,72	14,641
498,92	14,636
499,12	18,645
499,32	13,479
499,52	15,773
499,72	15,702
499,92	20,034
500,12	16,372
500,32	18,175
500,52	16,463
500,72	20,841
500,91	19,815
501,11	15,948
501,31	11,285
501,51	16,938
501,71	20,892
501,91	17,741
502,11	13,813
502,31	15,992
502,51	20,599
502,71	12,859
502,91	15,816
503,11	17,707
503,31	17,509
503,51	15,642
503,71	15,068
503,91	20,020
504,11	16,706
504,31	13,260
504,51	15,290
504,71	22,442
504,91	15,433
505,10	16,976
505,30	13,668
505,50	18,230
505,70	14,301
505,90	18,881
506,10	13,399
506,30	15,749
506,50	17,983
506,70	18,032
506,90	14,912
507,10	16,229
507,30	15,964
507,50	15,610
507,70	15,477
507,89	15,958
508,09	15,616
508,29	14,505
508,49	14,543
508,69	13,062
508,89	16,671
509,09	15,406
509,29	14,673
509,49	18,347
509,69	17,536
509,89	17,079
510,09	11,819
510,28	19,265
510,48	15,902
510,68	12,737
510,88	12,743
511,08	14,701
511,28	15,993
511,48	12,770
511,68	12,265
511,88	8,263
512,07	15,599
512,27	14,562
512,47	13,363
512,67	12,561
512,87	11,813
513,07	13,539
513,27	12,476
513,47	12,246
513,67	12,797
513,86	14,482
514,06	14,243
514,26	12,530
514,46	16,958
514,66	12,612
514,86	13,591
515,06	19,563
515,26	16,033
515,45	15,000
515,65	10,250
515,85	18,471
516,05	9,500
516,25	13,007
516,45	16,575
516,65	12,793
516,84	16,759
517,04	16,268
517,24	13,144
517,44	14,059
517,64	15,634
517,84	16,028
518,04	11,180
518,23	17,666
518,43	18,575
518,63	12,809
518,83	11,172
519,03	15,542
519,23	15,424
519,42	13,353
519,62	11,257
519,82	13,443
520,02	10,804
520,22	8,765
520,42	12,636
520,61	16,387
520,81	16,663
521,01	15,003
521,21	10,134
521,41	13,291
521,61	16,683
521,80	13,107
522,00	12,790
522,20	16,195
522,40	14,867
522,60	12,311
522,79	10,532
522,99	15,010
523,19	13,451
523,39	14,584
523,59	12,649
523,78	14,291
523,98	13,522
524,18	12,032
524,38	10,271
524,58	11,016
524,77	15,638
524,97	13,174
525,17	13,544
525,37	14,369
525,57	16,509
525,76	12,023
525,96	12,985
526,16	10,913
526,36	12,802
526,56	12,300
526,75	10,640
526,95	13,821
527,15	13,411
527,35	14,631
527,55	10,369
527,74	13,271
527,94	10,430
528,14	10,162
528,34	13,667
528,53	11,262
528,73	13,381
528,93	11,652
529,13	10,133
529,32	12,130
529,52	15,402
529,72	9,818
529,92	7,308
530,12	12,198
530,31	9,730
530,51	9,541
530,71	12,132
530,91	16,968
531,10	7,004
531,30	11,146
531,50	8,620
531,70	11,344
531,89	12,260
532,09	7,935
532,29	9,190
532,49	11,854
532,68	13,167
532,88	9,810
533,08	12,318
533,28	12,305
533,47	12,675
533,67	11,941
533,87	8,046
534,06	16,338
534,26	12,941
534,46	10,192
534,66	10,869
534,85	12,261
535,05	4,416
535,25	9,149
535,45	9,247
535,64	14,441
535,84	12,133
536,04	7,431
536,23	11,481
536,43	14,082
536,63	8,671
536,83	10,335
537,02	7,934
537,22	10,524
537,42	10,477
537,61	10,135
537,81	12,314
538,01	11,918
538,20	11,406
538,40	9,482
538,60	10,547
538,80	10,937
538,99	13,790
539,19	10,619
539,39	10,541
539,58	13,987
539,78	9,527
539,98	8,540
540,17	8,459
540,37	10,896
540,57	8,629
540,76	10,714
540,96	8,854
541,16	12,652
541,36	10,694
541,55	6,143
541,75	6,811
541,95	8,557
542,14	7,966
542,34	7,125
542,54	7,804
542,73	11,092
542,93	9,584
543,13	7,161
543,32	8,299
543,52	8,420
543,72	7,550
543,91	8,939
544,11	6,734
544,31	7,642
544,50	8,212
544,70	7,496
544,89	7,782
545,09	9,951
545,29	7,880
545,48	8,343
545,68	7,004
545,88	8,263
546,07	6,761
546,27	8,709
546,47	8,828
546,66	8,560
546,86	9,317
547,06	7,727
547,25	8,870
547,45	11,564
547,64	10,329
547,84	12,181
548,04	7,849
548,23	11,694
548,43	11,035
548,63	11,623
548,82	11,310
549,02	10,098
549,21	8,067
549,41	10,114
549,61	9,408
549,80	8,801
550,00	11,595
550,20	8,508
550,39	10,805
550,59	10,018
550,78	8,620
550,98	6,322
551,18	9,771
551,37	9,557
551,57	9,218
551,76	9,342
551,96	9,126
552,16	9,094
552,35	10,426
552,55	8,926
552,74	9,979
552,94	10,572
553,14	7,969
553,33	8,834
553,53	8,274
553,72	8,944
553,92	12,040
554,12	9,108
554,31	11,728
554,51	10,544
554,70	6,956
554,90	8,430
555,09	9,687
555,29	10,891
555,49	10,064
555,68	10,830
555,88	8,917
556,07	11,835
556,27	13,939
556,46	8,502
556,66	5,950
556,86	14,019
557,05	11,017
557,25	8,559
557,44	7,960
557,64	8,506
557,83	7,685
558,03	9,186
558,22	8,599
558,42	11,246
558,62	12,914
558,81	9,611
559,01	7,929
559,20	10,623
559,40	7,846
559,59	9,472
559,79	6,918
559,98	11,527
560,18	12,451
560,37	9,153
560,57	10,506
560,76	8,341
560,96	8,108
561,16	10,323
561,35	8,417
561,55	14,601
561,74	10,553
561,94	11,527
562,13	10,266
562,33	11,398
562,52	10,093
562,72	8,660
562,91	7,527
563,11	9,931
563,30	11,998
563,50	6,303
563,69	7,708
563,89	8,635
564,08	9,856
564,28	8,435
564,47	9,818
564,67	9,593
564,86	10,168
565,06	7,471
565,25	8,587
565,45	9,113
565,64	13,264
565,84	8,623
566,03	7,487
566,23	9,986
566,42	11,376
566,62	9,807
566,81	8,528
567,01	7,390
567,20	12,147
567,40	6,770
567,59	8,181
567,79	14,057
567,98	11,613
568,18	9,115
568,37	8,485
568,57	10,571
568,76	12,306
568,96	9,241
569,15	7,964
569,35	8,975
569,54	12,933
569,73	9,469
569,93	4,356
570,12	7,224
570,32	10,095
570,51	9,012
570,71	8,523
570,90	11,150
571,10	10,213
571,29	7,219
571,49	8,188
571,68	9,716
571,87	8,743
572,07	8,989
572,26	7,081
572,46	9,648
572,65	9,874
572,85	7,097
573,04	9,759
573,24	8,115
573,43	12,651
573,62	10,329
573,82	9,581
574,01	10,163
574,21	9,832
574,40	6,661
574,60	7,377
574,79	11,446
574,98	9,021
575,18	10,642
575,37	7,622
575,57	9,741
575,76	9,442
575,96	11,081
576,15	8,525
576,34	11,042
576,54	8,892
576,73	8,741
576,93	9,536
577,12	10,577
577,31	10,710
577,51	8,579
577,70	9,865
577,90	9,430
578,09	9,030
578,28	9,138
578,48	8,147
578,67	12,063
578,87	10,837
579,06	9,063
579,25	10,458
579,45	11,401
579,64	9,183
579,84	9,136
580,03	8,798
580,22	12,018
580,42	9,143
580,61	9,668
580,81	9,922
581,00	12,946
581,19	10,877
581,39	9,294
581,58	8,768
581,77	8,872
581,97	12,241
582,16	10,398
582,35	8,402
582,55	10,911
582,74	13,363
582,94	9,289
583,13	7,786
583,32	10,693
583,52	11,027
583,71	10,249
583,90	10,434
584,10	10,815
584,29	12,426
584,48	9,379
584,68	9,793
584,87	12,441
585,06	11,590
585,26	10,042
585,45	9,474
585,65	13,242
585,84	10,601
586,03	10,158
586,23	10,010
586,42	12,134
586,61	13,457
586,81	10,239
587,00	9,616
587,19	11,137
587,39	13,806
587,58	11,804
587,77	12,072
587,97	11,092
588,16	10,566
588,35	11,423
588,54	12,296
588,74	10,847
588,93	14,655
589,12	11,503
589,32	10,761
589,51	13,090
589,70	10,039
589,90	9,877
590,09	10,903
590,28	16,300
590,48	10,382
590,67	12,270
590,86	10,919
591,06	12,605
591,25	13,409
591,44	13,319
591,63	13,138
591,83	12,776
592,02	12,835
592,21	11,507
592,41	10,994
592,60	15,114
592,79	13,405
592,98	13,879
593,18	12,449
593,37	12,837
593,56	13,761
593,76	13,744
593,95	12,321
594,14	12,530
594,33	16,121
594,53	13,104
594,72	13,393
594,91	15,308
595,10	15,648
595,30	13,561
595,49	11,569
595,68	15,768
595,88	14,390
596,07	13,409
596,26	13,146
596,45	13,003
596,65	13,835
596,84	13,816
597,03	12,838
597,22	14,882
597,42	17,108
597,61	13,953
597,80	15,468
597,99	15,184
598,19	14,579
598,38	16,337
598,57	13,986
598,76	16,418
598,95	16,794
599,15	14,387
599,34	15,203
599,53	13,015
599,72	13,472
599,92	14,907
600,11	14,894
600,30	15,708
600,49	17,881
600,69	13,274
600,88	15,657
601,07	15,692
601,26	14,787
601,45	15,353
601,65	14,470
601,84	15,640
602,03	15,569
602,22	16,780
602,42	16,040
602,61	15,706
602,80	16,518
602,99	16,155
603,18	15,939
603,38	17,987
603,57	14,558
603,76	14,850
603,95	14,903
604,14	17,109
604,34	16,348
604,53	15,753
604,72	16,631
604,91	17,740
605,10	17,449
605,29	17,456
605,49	12,198
605,68	16,833
605,87	19,559
606,06	16,340
606,25	14,449
606,45	16,889
606,64	16,509
606,83	17,678
607,02	16,170
607,21	18,941
607,40	17,918
607,60	14,833
607,79	15,160
607,98	16,186
608,17	16,993
608,36	15,306
608,55	19,236
608,75	18,532
608,94	19,228
609,13	15,668
609,32	15,624
609,51	17,887
609,70	15,353
609,89	16,458
610,09	16,688
610,28	20,055
610,47	17,362
610,66	15,875
610,85	14,946
611,04	18,063
611,23	16,238
611,43	14,763
611,62	15,806
611,81	17,441
612,00	17,303
612,19	16,440
612,38	16,043
612,57	17,948
612,77	16,894
612,96	16,480
613,15	17,860
613,34	17,884
613,53	19,158
613,72	19,252
613,91	18,251
614,10	17,231
614,29	18,643
614,49	16,183
614,68	16,485
614,87	19,393
615,06	22,008
615,25	15,549
615,44	19,521
615,63	18,635
615,82	17,242
616,01	18,338
616,21	18,072
616,40	20,948
616,59	22,267
616,78	19,886
616,97	19,701
617,16	18,823
617,35	19,936
617,54	18,861
617,73	19,632
617,92	19,491
618,11	20,763
618,31	15,977
618,50	19,245
618,69	20,533
618,88	20,903
619,07	17,648
619,26	18,834
619,45	19,953
619,64	18,317
619,83	17,099
620,02	19,397
620,21	22,367
620,40	21,298
620,59	18,736
620,78	18,082
620,97	21,210
621,17	21,297
621,36	19,086
621,55	19,763
621,74	21,181
621,93	22,099
622,12	18,965
622,31	18,684
622,50	20,576
622,69	22,708
622,88	20,354
623,07	23,456
623,26	22,220
623,45	22,302
623,64	19,749
623,83	19,402
624,02	21,859
624,21	22,097
624,40	20,593
624,59	18,475
624,78	20,235
624,97	23,384
625,16	18,358
625,35	18,727
625,54	19,455
625,73	20,181
625,92	20,786
626,12	21,478
626,31	21,725
626,50	22,206
626,69	19,797
626,88	19,093
627,07	21,693
627,26	23,196
627,45	20,230
627,64	20,174
627,83	21,498
628,02	20,517
628,21	19,835
628,40	19,680
628,59	24,107
628,78	21,423
628,97	21,855
629,16	20,139
629,35	21,599
629,54	24,835
629,73	21,200
629,92	19,703
630,10	22,175
630,29	23,132
630,48	21,453
630,67	19,985
630,86	23,657
631,05	21,357
631,24	22,375
631,43	18,666
631,62	21,578
631,81	22,938
632,00	22,188
632,19	18,887
632,38	23,561
632,57	18,390
632,76	20,617
632,95	20,598
633,14	24,261
633,33	23,443
633,52	20,763
633,71	20,691
633,90	20,147
634,09	23,136
634,28	22,060
634,47	20,463
634,66	22,347
634,85	21,012
635,04	26,102
635,22	21,115
635,41	21,096
635,60	22,829
635,79	25,176
635,98	18,825
636,17	23,383
636,36	20,857
636,55	22,709
636,74	21,356
636,93	23,243
637,12	22,790
637,31	21,765
637,50	22,683
637,69	23,395
637,87	24,179
638,06	21,484
638,25	21,681
638,44	23,799
638,63	22,064
638,82	21,890
639,01	22,503
639,20	24,053
639,39	24,838
639,58	21,864
639,77	22,098
639,95	21,336
640,14	24,449
640,33	21,811
640,52	21,725
640,71	23,286
640,90	24,041
641,09	24,792
641,28	20,880
641,47	25,484
641,66	23,540
641,84	23,021
642,03	21,579
642,22	23,191
642,41	25,715
642,60	22,189
642,79	23,634
642,98	23,636
643,17	22,485
643,35	20,774
643,54	23,764
643,73	24,568
643,92	25,393
644,11	23,524
644,30	20,789
644,49	24,201
644,67	23,477
644,86	22,369
645,05	25,140
645,24	23,429
645,43	24,789
645,62	22,185
645,81	23,083
645,99	24,526
646,18	25,702
646,37	22,263
646,56	22,303
646,75	23,522
646,94	27,560
647,13	22,736
647,31	23,985
647,50	25,173
647,69	26,393
647,88	23,780
648,07	24,374
648,26	28,745
648,44	23,913
648,63	22,726
648,82	24,986
649,01	26,269
649,20	22,538
649,38	24,712
649,57	23,061
649,76	21,857
649,95	24,688
650,14	21,123
650,33	22,583
650,51	23,157
650,70	24,132
650,89	23,136
651,08	24,137
651,27	25,084
651,45	23,706
651,64	22,401
651,83	24,644
652,02	23,083
652,21	24,830
652,39	24,564
652,58	24,752
652,77	24,761
652,96	24,351
653,15	25,655
653,33	23,633
653,52	25,009
653,71	26,245
653,90	25,462
654,09	24,720
654,27	23,457
654,46	27,120
654,65	24,259
654,84	24,715
655,02	26,082
655,21	26,201
655,40	26,480
655,59	23,919
655,77	26,073
655,96	25,410
656,15	26,673
656,34	26,239
656,53	24,197
656,71	26,455
656,90	24,346
657,09	26,569
657,28	25,673
657,46	24,121
657,65	24,382
657,84	24,115
658,03	26,915
658,21	24,960
658,40	23,497
658,59	22,847
658,78	27,274
658,96	25,299
659,15	24,298
659,34	24,532
659,52	25,342
659,71	24,855
659,90	22,415
660,09	23,339
660,27	24,163
660,46	27,824
660,65	23,360
660,84	21,927
661,02	24,585
661,21	25,989
661,40	23,631
661,58	23,113
661,77	26,241
661,96	21,738
662,15	24,178
662,33	22,545
662,52	22,865
662,71	24,732
662,89	22,900
663,08	23,610
663,27	24,146
663,45	22,777
663,64	23,265
663,83	22,281
664,02	23,018
664,20	25,306
664,39	23,186
664,58	24,818
664,76	24,859
664,95	24,547
665,14	22,377
665,32	23,065
665,51	24,503
665,70	24,807
665,88	23,793
666,07	22,855
666,26	26,887
666,44	23,346
666,63	20,913
666,82	23,108
667,00	24,329
667,19	23,459
667,38	23,311
667,56	24,255
667,75	23,148
667,94	25,028
668,12	21,609
668,31	23,307
668,50	24,912
668,68	25,007
668,87	21,579
669,06	23,330
669,24	24,877
669,43	23,386
669,62	22,123
669,80	22,126
669,99	22,727
670,18	24,052
670,36	22,175
670,55	22,281
670,74	23,194
670,92	20,125
671,11	22,346
671,29	22,375
671,48	23,344
671,67	22,795
671,85	24,350
672,04	20,878
672,23	21,393
672,41	23,368
672,60	23,860
672,78	21,884
672,97	23,276
673,16	23,794
673,34	21,534
673,53	20,466
673,71	24,174
673,90	24,489
674,09	23,258
674,27	22,174
674,46	22,622
674,64	24,076
674,83	21,122
675,02	20,923
675,20	23,368
675,39	22,117
675,57	22,590
675,76	22,164
675,95	25,356
676,13	23,869
676,32	23,790
676,50	22,604
676,69	21,267
676,88	22,281
677,06	21,974
677,25	23,562
677,43	26,150
677,62	24,469
677,80	23,244
677,99	22,925
678,18	24,906
678,36	24,821
678,55	21,841
678,73	22,543
678,92	22,657
679,10	24,424
679,29	23,298
679,48	21,218
679,66	22,455
679,85	22,560
680,03	22,461
680,22	21,810
680,40	22,407
680,59	23,083
680,77	22,360
680,96	22,548
681,15	22,718
681,33	24,249
681,52	22,123
681,70	23,667
681,89	25,556
682,07	24,720
682,26	22,332
682,44	22,797
682,63	24,521
682,81	22,167
683,00	24,703
683,18	21,979
683,37	24,878
683,55	22,888
683,74	22,951
683,92	29,522
684,11	24,514
684,29	24,313
684,48	21,102
684,67	23,612
684,85	23,093
685,04	23,552
685,22	22,688
685,41	22,979
685,59	24,940
685,78	22,504
685,96	22,456
686,15	23,456
686,33	22,400
686,52	23,386
686,70	22,650
686,89	24,043
687,07	23,619
687,26	24,023
687,44	23,677
687,62	23,071
687,81	24,842
687,99	24,476
688,18	24,930
688,36	24,984
688,55	26,015
688,73	25,377
688,92	24,318
689,10	25,033
689,29	27,829
689,47	27,719
689,66	23,546
689,84	23,134
690,03	27,272
690,21	24,337
690,40	24,335
690,58	22,115
690,76	23,132
690,95	24,855
691,13	23,293
691,32	24,831
691,50	25,831
691,69	26,406
691,87	24,426
692,06	22,852
692,24	22,982
692,43	25,754
692,61	23,293
692,79	24,201
692,98	23,763
693,16	27,999
693,35	22,814
693,53	24,653
693,72	26,248
693,90	26,471
694,08	22,390
694,27	23,260
694,45	27,027
694,64	28,499
694,82	24,239
695,01	25,435
695,19	24,644
695,37	23,379
695,56	24,410
695,74	26,233
695,93	25,441
696,11	23,886
696,29	25,427
696,48	25,203
696,66	25,427
696,85	25,431
697,03	22,294
697,21	25,744
697,40	26,369
697,58	25,608
697,77	25,093
697,95	25,872
698,13	25,083
698,32	25,304
698,50	24,131
698,69	24,150
698,87	26,291
699,05	25,182
699,24	23,526
699,42	24,815
699,60	23,319
699,79	24,360
699,97	24,644
700,16	22,275
700,34	27,238
700,52	23,929
700,71	24,121
700,89	23,907
701,07	26,116
701,26	25,717
701,44	24,921
701,63	22,127
701,81	26,012
701,99	27,038
702,18	23,491
702,36	24,083
702,54	26,502
702,73	25,838
702,91	25,062
703,09	25,042
703,28	24,564
703,46	27,328
703,64	24,807
703,83	24,229
704,01	26,844
704,19	24,606
704,38	24,771
704,56	25,054
704,74	26,727
704,93	26,022
705,11	24,185
705,29	24,799
705,48	31,947
705,66	25,717
705,84	24,542
706,03	22,870
706,21	26,370
706,39	24,908
706,58	24,225
706,76	23,935
706,94	27,414
707,12	27,412
707,31	24,226
707,49	25,631
707,67	26,005
707,86	29,052
708,04	25,697
708,22	22,814
708,41	26,459
708,59	26,339
708,77	21,726
708,95	25,431
709,14	29,671
709,32	26,921
709,50	22,912
709,69	24,640
709,87	25,094
710,05	25,425
710,23	23,923
710,42	23,014
710,60	24,979
710,78	28,203
710,97	24,224
711,15	25,839
711,33	26,540
711,51	25,348
711,70	22,645
711,88	23,879
712,06	28,902
712,24	25,986
712,43	25,054
712,61	25,022
712,79	26,473
712,97	24,175
713,16	24,901
713,34	25,491
713,52	27,075
713,70	26,328
713,89	24,514
714,07	25,412
714,25	25,719
714,43	26,738
714,62	24,002
714,80	23,492
714,98	22,458
715,16	24,436
715,35	22,446
715,53	24,317
715,71	29,038
715,89	27,097
716,07	25,884
716,26	27,991
716,44	28,170
716,62	27,019
716,80	25,127
716,99	25,146
717,17	28,075
717,35	25,737
717,53	24,803
717,71	23,707
717,90	24,670
718,08	25,467
718,26	23,338
718,44	25,671
718,62	26,309
718,81	26,463
718,99	24,655
719,17	25,910
719,35	25,366
719,53	24,927
719,72	23,020
719,90	24,785
720,08	25,570
720,26	28,344
720,44	23,372
720,62	25,516
720,81	28,602
720,99	27,691
721,17	24,394
721,35	25,135
721,53	25,991
721,72	26,749
721,90	25,562
722,08	23,589
722,26	28,662
722,44	26,594
722,62	25,142
722,81	25,412
722,99	25,873
723,17	26,011
723,35	27,079
723,53	23,948
723,71	26,463
723,89	29,420
724,08	21,300
724,26	23,747
724,44	25,975
724,62	25,367
724,80	24,798
724,98	24,677
725,16	29,614
725,35	25,327
725,53	24,497
725,71	24,286
725,89	25,356
726,07	27,964
726,25	28,096
726,43	24,293
726,61	26,253
726,80	27,718
726,98	24,777
727,16	23,377
727,34	28,994
727,52	26,284
727,70	24,519
727,88	23,977
728,06	21,218
728,25	23,892
728,43	23,788
728,61	24,228
728,79	26,819
728,97	25,539
729,15	26,892
729,33	25,588
729,51	25,849
729,69	25,126
729,87	24,299
730,06	25,124
730,24	26,539
730,42	26,815
730,60	23,048
730,78	25,409
730,96	25,040
731,14	26,244
731,32	25,401
731,50	22,874
731,68	25,320
731,86	28,951
732,04	25,457
732,22	24,248
732,41	29,621
732,59	26,717
732,77	26,522
732,95	27,408
733,13	27,137
733,31	26,384
733,49	23,451
733,67	26,410
733,85	28,301
734,03	26,427
734,21	26,783
734,39	25,914
734,57	27,630
734,75	27,709
734,93	23,779
735,11	26,174
735,29	23,952
735,47	28,113
735,65	23,407
735,84	23,027
736,02	25,105
736,20	29,278
736,38	24,088
736,56	24,013
736,74	26,019
736,92	24,579
737,10	25,125
737,28	26,405
737,46	26,371
737,64	24,161
737,82	23,984
738,00	26,247
738,18	26,943
738,36	27,026
738,54	24,671
738,72	23,098
738,90	26,756
739,08	26,438
739,26	23,455
739,44	25,615
739,62	27,065
739,80	27,817
739,98	23,449
740,16	25,428
740,34	26,519
740,52	28,722
740,70	24,910
740,88	23,062
741,06	25,420
741,24	25,170
741,42	26,533
741,60	24,646
741,78	27,184
741,96	23,985
742,14	25,571
742,32	24,335
742,50	25,689
742,68	25,375
742,86	26,331
743,04	24,979
743,21	28,270
743,39	25,111
743,57	23,826
743,75	24,500
743,93	23,962
744,11	23,273
744,29	22,691
744,47	25,030
744,65	25,428
744,83	23,903
745,01	24,050
745,19	27,448
745,37	29,942
745,55	27,874
745,73	26,671
745,91	24,187
746,09	24,871
746,27	24,734
746,45	21,936
746,62	26,138
746,80	23,865
746,98	25,957
747,16	25,215
747,34	26,179
747,52	25,674
747,70	28,121
747,88	24,613
748,06	25,131
748,24	25,314
748,42	27,544
748,60	23,862
748,78	24,912
748,95	27,705
749,13	29,417
749,31	23,367
749,49	22,599
749,67	28,573
749,85	27,971
750,03	24,984
750,21	24,917
750,39	25,826
750,57	25,509
750,74	26,507
750,92	23,866
751,10	28,415
751,28	23,833
751,46	24,687
751,64	23,657
751,82	27,635
752,00	27,147
752,17	26,482
752,35	24,085
752,53	26,363
752,71	25,698
752,89	24,960
753,07	25,170
753,25	28,580
753,43	24,580
753,60	26,037
753,78	24,620
753,96	27,300
754,14	26,661
754,32	25,416
754,50	24,996
754,68	27,165
754,85	27,157
755,03	26,869
755,21	25,604
755,39	27,798
755,57	27,096
755,75	25,648
755,92	23,536
756,10	25,949
756,28	26,499
756,46	25,412
756,64	25,411
756,82	27,201
756,99	26,830
757,17	23,875
757,35	24,674
757,53	27,805
757,71	28,402
757,89	24,147
758,06	24,057
758,24	27,545
758,42	27,551
758,60	26,194
758,78	25,052
758,95	27,430
759,13	28,865
759,31	24,891
759,49	23,907
759,67	26,514
759,84	24,868
760,02	24,553
760,20	25,282
760,38	26,710
760,56	25,462
760,73	27,643
760,91	26,434
761,09	29,341
761,27	25,225
761,45	23,830
761,62	24,299
761,80	25,551
761,98	26,742
762,16	26,037
762,33	22,922
762,51	27,100
762,69	24,519
762,87	26,503
763,05	25,723
763,22	25,933
763,40	25,567
763,58	22,518
763,76	25,198
763,93	30,118
764,11	27,277
764,29	25,379
764,47	25,910
764,64	26,422
764,82	27,848
765,00	24,979
765,18	24,514
765,35	25,209
765,53	26,159
765,71	27,272
765,89	24,934
766,06	24,225
766,24	26,284
766,42	26,142
766,60	24,952
766,77	24,582
766,95	25,369
767,13	25,333
767,30	25,058
767,48	25,651
767,66	24,380
767,84	22,762
768,01	25,114
768,19	25,528
768,37	25,729
768,54	23,702
768,72	25,305
768,90	25,143
769,08	29,532
769,25	25,276
769,43	24,044
769,61	24,485
769,78	27,578
769,96	24,861
770,14	26,095
770,31	28,871
770,49	26,608
770,67	25,547
770,85	24,613
771,02	25,661
771,20	25,284
771,38	26,131
771,55	25,931
771,73	25,024
771,91	25,812
772,08	28,091
772,26	25,412
772,44	27,452
772,61	26,186
772,79	25,684
772,97	24,669
773,14	24,336
773,32	25,856
773,50	24,805
773,67	26,934
773,85	27,359
774,03	26,182
774,20	25,456
774,38	23,305
774,56	27,215
774,73	23,870
774,91	25,955
775,09	26,274
775,26	26,844
775,44	29,083
775,61	27,103
775,79	23,429
775,97	29,156
776,14	25,109
776,32	24,144
776,50	25,703
776,67	26,311
776,85	26,892
777,03	22,556
777,20	25,031
777,38	29,318
777,55	24,485
777,73	22,036
777,91	24,404
778,08	26,042
778,26	25,970
778,43	27,876
778,61	20,866
778,79	26,163
778,96	24,584
779,14	23,812
779,32	25,610
779,49	26,604
779,67	28,054
779,84	27,792
780,02	26,870
780,20	23,145
780,37	27,350
780,55	23,538
780,72	26,988
780,90	27,047
781,07	27,051
781,25	27,123
781,43	26,540
781,60	25,574
781,78	27,084
781,95	27,261
782,13	25,463
782,30	27,868
782,48	27,098
782,66	25,282
782,83	24,129
783,01	31,767
783,18	25,289
783,36	26,678
783,53	25,996
783,71	24,968
783,89	23,505
784,06	26,072
784,24	26,330
784,41	28,199
784,59	23,380
784,76	25,670
784,94	25,134
785,11	27,850
785,29	25,259
785,46	25,524
785,64	24,622
785,82	27,090
785,99	29,275
786,17	26,016
786,34	22,093
786,52	29,849
786,69	31,066
786,87	25,000
787,04	25,149
787,22	24,589
787,39	27,149
787,57	28,978
787,74	26,830
787,92	30,082
788,09	28,560
788,27	26,298
788,44	25,300
788,62	28,117
788,79	26,844
788,97	28,877
789,14	26,022
789,32	28,198
789,49	26,820
789,67	27,226
789,84	26,295
790,02	26,504
790,19	24,868
790,37	25,581
790,54	24,778
790,72	30,141
790,89	28,718
791,07	26,208
791,24	22,080
791,42	29,557
791,59	27,742
791,77	24,876
791,94	24,846
792,12	28,310
792,29	30,527
792,47	26,313
792,64	30,214
792,81	28,641
792,99	25,721
793,16	27,799
793,34	28,538
793,51	30,831
793,69	30,832
793,86	23,471
794,04	27,103
794,21	30,295
794,39	22,649
794,56	25,772
794,73	28,279
794,91	30,028
795,08	27,393
795,26	26,374
795,43	26,938
795,61	30,450
795,78	28,037
795,95	28,655
796,13	28,057
796,30	30,571
796,48	25,855
796,65	25,449
796,83	26,619
797,00	32,135
797,17	26,746
797,35	25,644
797,52	27,344
797,70	29,256
797,87	27,285
798,04	22,559
798,22	27,461
798,39	28,693
798,57	27,955
798,74	27,716
798,91	26,157
799,09	28,558
799,26	30,645
799,44	28,419
799,61	25,900
799,78	27,673
799,96	31,278
800,13	24,815
800,31	26,121
800,48	29,826
800,65	34,934
800,83	25,086
801,00	26,415
801,17	27,548
801,35	29,547
801,52	25,105
801,70	26,091
801,87	31,061
802,04	31,752
802,22	26,063
802,39	27,123
802,56	34,703
802,74	29,093
802,91	26,498
803,08	23,428
803,26	27,174
803,43	34,842
803,61	25,476
803,78	27,475
803,95	28,322
804,13	28,428
804,30	24,604
804,47	29,079
804,65	34,195
804,82	29,424
804,99	26,566
805,17	26,668
805,34	35,114
805,51	32,192
805,69	22,115
805,86	28,239
806,03	34,373
806,21	30,952
806,38	26,635
806,55	31,170
806,72	33,070
806,90	32,695
807,07	27,027
807,24	29,489
807,42	26,923
807,59	26,469
807,76	23,371
807,94	26,671
808,11	35,706
808,28	34,765
808,45	27,387
808,63	28,003
808,80	30,424
808,97	30,472
809,15	25,042
809,32	29,315
809,49	27,012
809,67	31,728
809,84	28,630
810,01	32,627
810,18	37,841
810,36	32,018
810,53	29,833
810,70	27,553
810,87	28,802
811,05	29,540
811,22	27,968
811,39	27,902
811,57	34,315
811,74	33,461
811,91	26,387
812,08	27,391
812,26	30,099
812,43	28,770
812,60	27,671
812,77	25,660
812,95	31,260
813,12	31,878
813,29	25,667
813,46	32,152
813,64	31,104
813,81	32,091
813,98	29,608
814,15	29,460
814,32	31,482
814,50	27,785
814,67	28,173
814,84	29,769
815,01	33,548
815,19	20,333
815,36	22,049
815,53	29,381
815,70	26,661
815,87	20,733
816,05	21,558
816,22	30,200
816,39	33,100
816,56	35,343
816,74	29,272
816,91	24,712
817,08	38,612
817,25	33,929
817,42	27,205
817,60	26,108
817,77	32,480
817,94	33,530
818,11	27,264
818,28	27,215
818,45	36,893
818,63	30,577
818,80	28,539
818,97	26,018
819,14	37,068
819,31	36,700
819,49	38,110
819,66	24,935
819,83	31,953
820,00	32,691
820,17	28,074
820,34	30,560
820,52	34,257
820,69	33,596
820,86	24,188
821,03	34,299
821,20	32,821
821,37	32,742
821,55	19,952
821,72	30,980
821,89	34,589
822,06	37,541
822,23	25,954
822,40	28,937
822,57	30,338
822,75	39,690
822,92	24,543
823,09	28,706
823,26	32,722
823,43	35,871
823,60	26,241
823,77	30,782
823,94	35,481
824,12	37,741
824,29	30,005
824,46	26,971
824,63	37,824
824,80	36,590
824,97	29,414
825,14	28,340
825,31	37,881
825,49	33,979
825,66	28,908
825,83	24,597
826,00	35,436
826,17	41,532
826,34	31,331
826,51	24,900
826,68	30,219
826,85	27,954
827,02	27,845
827,20	24,304
827,37	32,915
827,54	34,177
827,71	32,406
827,88	34,382
828,05	37,814
828,22	34,365
828,39	37,867
828,56	35,923
828,73	35,886
828,90	35,346
829,07	27,385
829,25	30,602
829,42	33,288
829,59	27,553
829,76	29,408
829,93	24,973
830,10	33,414
830,27	31,057
830,44	28,815
830,61	30,300
830,78	22,992
830,95	32,972
831,12	23,746
831,29	25,631
831,46	29,625
831,63	30,956
831,80	31,067
831,97	25,683
832,14	41,148
832,31	47,568
832,48	26,917
832,65	36,489
832,83	34,865
833,00	30,826
833,17	28,981
833,34	34,522
833,51	39,308
833,68	41,298
833,85	34,719
834,02	22,870
834,19	37,090
834,36	36,959
834,53	23,206
834,70	30,809
834,87	44,781
835,04	31,614
835,21	30,506
835,38	27,116
835,55	28,238
835,72	53,727
835,89	28,726
836,06	28,276
836,23	50,708
836,40	32,248
836,57	25,542
836,74	33,908
836,91	36,856
837,08	39,686
837,25	35,067
837,42	20,221
837,59	33,973
837,76	41,573
837,93	27,806
838,09	23,223
838,26	41,281
838,43	47,662
838,60	37,381
838,77	28,766
838,94	40,463
839,11	29,415
839,28	27,876
839,45	32,161
839,62	37,918
839,79	30,015
839,96	26,469
840,13	42,057
840,30	30,711
840,47	27,034
840,64	29,967
840,81	29,718
840,98	28,534
841,15	45,833
841,32	20,582
841,48	39,455
841,65	38,588
841,82	30,553
841,99	33,474
842,16	25,514
842,33	38,671
842,50	37,126
842,67	28,930
842,84	31,292
843,01	42,059
843,18	34,591
843,35	34,364
843,52	31,919
843,68	36,622
843,85	41,249
844,02	24,863
844,19	26,213
844,36	46,024
844,53	56,474
844,70	31,831
844,87	49,609
845,04	31,921
845,21	25,480
845,37	45,445
845,54	34,194
845,71	34,610
845,88	53,131
846,05	30,108
846,22	26,747
846,39	41,810
846,56	53,186
846,72	27,850
846,89	36,590
847,06	49,563
847,23	44,870
847,40	33,261
847,57	26,067
847,74	47,920
847,90	48,696
848,07	32,041
848,24	35,585
848,41	42,045
848,58	62,624
848,75	31,982
848,92	35,385
849,08	37,571
849,25	46,386
849,42	23,651
849,59	38,328
849,76	32,904
849,93	34,723
850,09	42,121
850,26	28,730
850,43	52,070
850,60	32,798
850,77	26,677
850,94	35,293
851,10	46,594
851,27	35,451
851,44	19,581
851,61	32,012
851,78	52,890
851,95	61,211
852,11	30,823
852,28	20,510
852,45	41,549
852,62	49,459
852,79	37,340
852,95	37,502
853,12	42,366
853,29	35,850
853,46	20,908
853,63	35,311
853,79	39,709
853,96	31,184
854,13	49,779
854,30	26,586
854,46	62,157
854,63	39,292
854,80	33,090
854,97	25,921
855,14	60,935
855,30	56,310
855,47	24,857
855,64	39,343
855,81	39,582
855,97	62,877
856,14	42,472
856,31	29,760
856,48	63,977
856,65	65,845
856,81	46,099
856,98	18,324
857,15	45,255
857,32	47,638
857,48	21,607
857,65	49,763
857,82	41,863
857,99	52,256
858,15	40,558
858,32	41,243
858,49	50,064
858,65	67,232
858,82	52,743
858,99	39,383
859,16	56,624
859,32	59,037
859,49	26,942
859,66	39,722
859,83	42,870
859,99	38,862
860,16	38,843
860,33	28,059
860,49	40,205
860,66	62,447
860,83	40,864
861,00	34,124
861,16	67,643
861,33	63,782
861,50	29,115
861,66	36,587
861,83	75,827
862,00	53,933
862,16	41,498
862,33	30,049
862,50	84,308
862,67	52,855
862,83	30,753
863,00	49,786
863,17	69,872
863,33	42,178
863,50	16,980
863,67	31,850
863,83	56,237
864,00	64,441
864,17	24,285
864,33	30,472
864,50	58,451
864,67	50,470
864,83	30,848
865,00	37,555
865,17	38,884
865,33	69,994
865,50	31,972
865,67	11,043
865,83	62,386
866,00	76,633
866,17	44,420
866,33	47,744
866,50	70,685
866,66	47,630
866,83	31,659
867,00	57,667
867,16	64,822
867,33	80,868
867,50	21,577
867,66	21,955
867,83	72,482
868,00	54,383
868,16	52,015
868,33	41,413
868,49	57,169
868,66	57,275
868,83	31,397
868,99	49,461
869,16	70,958
869,32	71,552
869,49	47,069
869,66	32,224
869,82	88,355
869,99	86,842
870,15	30,172
870,32	55,750
870,49	102,198
870,65	107,726
870,82	47,705
870,98	36,707
871,15	114,810
871,32	55,096
871,48	-8,900
871,65	18,803
871,81	58,064
871,98	21,772
872,15	19,382
872,31	40,025
872,48	129,550
872,64	87,817
872,81	25,760
872,97	66,806
873,14	109,947
873,31	85,113
873,47	42,240
873,64	57,753
873,80	117,980
873,97	118,094
874,13	38,190
874,30	42,501
874,46	83,359
874,63	59,029
874,80	40,754
874,96	12,668
875,13	140,426
875,29	60,151
875,46	47,079
875,62	27,354
875,79	85,161
875,95	64,325
876,12	43,138
876,28	-10,866
876,45	107,322
876,61	53,574
876,78	61,452
876,94	17,760
877,11	120,676
877,27	121,742
877,44	61,236
877,60	24,697
877,77	123,776
877,94	129,925
878,10	66,114
878,27	79,221
878,43	159,127
878,60	50,012
878,76	59,505
878,93	14,716
879,09	110,622
879,26	100,591
879,42	68,476
879,58	56,685
879,75	113,920
879,91	151,603
880,08	-63,416
880,24	44,171
880,41	79,753
880,57	77,119
880,74	31,496
880,90	102,821
881,07	103,855
881,23	163,552
881,40	62,860
881,56	59,542
881,73	120,965
881,89	91,735
882,06	27,133
882,22	220,623
882,38	198,515
882,55	117,189
882,71	61,504
882,88	42,033
883,04	190,601
883,21	220,818
883,37	52,638
883,54	75,147
883,70	197,913
883,86	127,307
884,03	92,635
884,19	12,575
884,36	196,908
884,52	222,571
884,69	83,718
884,85	108,694
885,01	192,147
885,18	155,944
885,34	141,406
885,51	-6,349
885,67	105,290
>>>>> Data<<<<< Espectral Procesado Extremo
