Fichero De Datos De SpectraSuite
++++++++++++++++++++++++++++++++++++
Fecha: Wed Apr 22 13:03:55 CEST 2009
Usuario: evoflor
Presente Oscuro Del Espectro: Sí
La Referencia de Presente Del Espectro De: Sí
Muestreados de los componentes de Número de espectros: 1
Espectrómetros: USB4F02353
Tiempo de integración (usec): 500000 (USB4F02353)
Promedio de Espectros Hechos un: 5 (USB4F02353)
El Alisar Del Furgón: 0 (USB4F02353)
Párrafo de de Corregir del la del del de Eléctrica del obscuridad: Sí (USB4F02353)
Estrobo/Lámpara Permitido: No (USB4F02353)
Correct for Detector Non-linearity: No (USB4F02353)
Párrafo de de Corregir del la del del de Externa del luz: No (USB4F02353)
Procesado del espectro de Número de pixeles en: 3648
>>>>> Comienza Data<<<<< Espectral Procesado Del EL
177,79	384,560
178,00	384,560
178,22	384,560
178,44	2766,923
178,66	-386,180
178,88	430,261
179,09	18,255
179,31	399,496
179,53	925,728
179,75	358,464
179,96	1219,914
180,18	-391,108
180,40	768,822
180,62	263,156
180,83	-434,256
181,05	-2603,780
181,27	-154110,000
181,49	93,457
181,70	49,269
181,92	1284,822
182,14	610,572
182,36	118,337
182,58	-155,100
182,79	1447,366
183,01	-53,623
183,23	363,516
183,45	-161,262
183,66	-80,575
183,88	551,824
184,10	-4880,182
184,32	363,639
184,53	367,066
184,75	-269,249
184,97	16,599
185,18	-95,132
185,40	-641,394
185,62	151,745
185,84	53,515
186,05	266,471
186,27	-313,206
186,49	4473,462
186,71	33,243
186,92	90,580
187,14	-306,354
187,36	266,293
187,58	110,920
187,79	-60,502
188,01	366,167
188,23	-440,369
188,45	-26,383
188,66	266,116
188,88	-2032,909
189,10	-1568,100
189,31	-75,614
189,53	-34,106
189,75	522,068
189,97	412,731
190,18	-80,215
190,40	805,941
190,62	-143,350
190,83	-291,070
191,05	153,434
191,27	265,457
191,49	312,401
191,70	-697,644
191,92	-604,322
192,14	-102,496
192,35	700,027
192,57	4968,857
192,79	-36,167
193,01	335,117
193,22	124,222
193,44	-193,874
193,66	176,598
193,87	23,576
194,09	3,689
194,31	233,503
194,53	769,301
194,74	80,177
194,96	93,491
195,18	203,545
195,39	-337,757
195,61	-209,917
195,83	-493,500
196,04	195,479
196,26	-258,844
196,48	18,815
196,70	403,002
196,91	170,208
197,13	9,646
197,35	10,978
197,56	861,641
197,78	2016,493
198,00	586,783
198,21	818,010
198,43	-1414,012
198,65	165,580
198,86	243,561
199,08	201,344
199,30	257,308
199,51	-745,309
199,73	255,792
199,95	417,104
200,16	852,346
200,38	346,782
200,60	111,997
200,81	420,578
201,03	44,592
201,25	-2090,100
201,46	148,595
201,68	36,673
201,90	2172,955
202,11	-746,221
202,33	297,684
202,55	1532,625
202,76	-190,744
202,98	154,390
203,20	-187,067
203,41	-252,158
203,63	163,510
203,85	-193710,000
204,06	165,452
204,28	-126,289
204,50	272,400
204,71	345,424
204,93	102,480
205,15	117,199
205,36	-304,990
205,58	359,712
205,80	-246,708
206,01	62,827
206,23	181,148
206,45	303,941
206,66	127,685
206,88	-29,092
207,10	346,159
207,31	441,338
207,53	214,029
207,75	53,002
207,96	841,119
208,18	-244,556
208,39	123,062
208,61	3040,286
208,83	-542,104
209,04	455,268
209,26	-565,023
209,48	386,899
209,69	422,758
209,91	1171,318
210,13	79,548
210,34	48,450
210,56	237,305
210,77	-1610,315
210,99	154,826
211,21	8641,765
211,42	-244,686
211,64	-50,106
211,86	286,105
212,07	277,327
212,29	354,237
212,50	150,390
212,72	42,346
212,94	158,590
213,15	197,319
213,37	157,467
213,58	105,299
213,80	-746,786
214,02	11818,235
214,23	481,588
214,45	546,590
214,67	-1747,683
214,88	-453,725
215,10	-417,095
215,31	-58,493
215,53	188,659
215,75	161,583
215,96	1616,832
216,18	902,958
216,39	251,892
216,61	603,734
216,83	483,080
217,04	2651,798
217,26	16,306
217,47	211,848
217,69	329,600
217,91	96,881
218,12	-47010,000
218,34	117,901
218,55	692,865
218,77	54,480
218,99	137,285
219,20	-178,356
219,42	549,101
219,63	-253,753
219,85	-32,746
220,06	146,192
220,28	258,068
220,50	21,884
220,71	118,873
220,93	3960,566
221,14	-2567,100
221,36	178,566
221,58	29,073
221,79	253,293
222,01	987,155
222,22	984,276
222,44	-1140,337
222,65	137,268
222,87	794,476
223,09	156,153
223,30	68,210
223,52	173,180
223,73	192,008
223,95	62,408
224,16	124,763
224,38	412,109
224,60	199,619
224,81	38,074
225,03	134,042
225,24	349,502
225,46	96,030
225,67	47,053
225,89	-69,228
226,10	445,211
226,32	786,480
226,54	28,872
226,75	12,626
226,97	153,761
227,18	186,603
227,40	130,606
227,61	43,802
227,83	93,258
228,04	236,938
228,26	40,337
228,47	50,093
228,69	286,469
228,91	148,570
229,12	146,707
229,34	25,080
229,55	76,092
229,77	19,945
229,98	20,513
230,20	62,818
230,41	-11,178
230,63	141,785
230,84	146,894
231,06	29,424
231,27	31,716
231,49	82,308
231,71	30,269
231,92	27,200
232,14	26,682
232,35	92,561
232,57	70,004
232,78	46,354
233,00	47,396
233,21	40,078
233,43	18,490
233,64	0,557
233,86	56,394
234,07	32,051
234,29	20,141
234,50	26,697
234,72	68,612
234,93	9,085
235,15	40,268
235,36	19,413
235,58	64,639
235,79	63,894
236,01	32,503
236,22	7,706
236,44	53,100
236,65	38,242
236,87	28,462
237,08	0,748
237,30	-2,083
237,51	31,680
237,73	-2,837
237,94	3,102
238,16	32,171
238,37	10,998
238,59	16,163
238,80	20,568
239,02	14,030
239,23	34,583
239,45	-1,559
239,66	27,982
239,88	33,546
240,09	22,310
240,31	2,693
240,52	6,632
240,74	11,594
240,95	18,332
241,17	5,157
241,38	4,073
241,60	18,715
241,81	39,692
242,03	2,246
242,24	19,505
242,46	20,093
242,67	4,650
242,89	11,734
243,10	24,838
243,32	27,938
243,53	30,059
243,75	13,832
243,96	8,562
244,18	18,359
244,39	20,488
244,60	7,440
244,82	0,153
245,03	26,880
245,25	15,952
245,46	32,325
245,68	11,067
245,89	30,506
246,11	20,366
246,32	10,752
246,54	7,336
246,75	13,885
246,97	14,225
247,18	20,584
247,39	3,742
247,61	13,360
247,82	22,831
248,04	13,163
248,25	8,751
248,47	16,720
248,68	14,947
248,90	7,382
249,11	7,352
249,33	23,683
249,54	14,802
249,75	11,874
249,97	1,340
250,18	22,875
250,40	16,273
250,61	-5,755
250,83	5,764
251,04	5,086
251,25	14,681
251,47	4,589
251,68	10,931
251,90	13,427
252,11	13,401
252,33	3,865
252,54	10,915
252,76	8,675
252,97	4,726
253,18	2,927
253,40	2,109
253,61	6,757
253,83	12,540
254,04	9,767
254,25	6,976
254,47	2,471
254,68	10,823
254,90	10,353
255,11	9,626
255,33	9,098
255,54	3,202
255,75	11,778
255,97	8,160
256,18	5,471
256,40	10,043
256,61	11,470
256,82	4,044
257,04	13,940
257,25	5,037
257,47	8,405
257,68	2,617
257,89	13,819
258,11	14,516
258,32	9,417
258,54	8,598
258,75	18,250
258,96	18,488
259,18	8,562
259,39	5,079
259,61	16,086
259,82	8,142
260,03	9,364
260,25	3,976
260,46	8,178
260,68	6,974
260,89	4,690
261,10	11,589
261,32	9,123
261,53	5,786
261,75	9,119
261,96	2,089
262,17	16,320
262,39	14,755
262,60	3,630
262,81	0,010
263,03	14,188
263,24	12,289
263,46	4,602
263,67	3,796
263,88	9,736
264,10	12,637
264,31	3,826
264,52	8,147
264,74	12,801
264,95	10,935
265,17	6,766
265,38	6,849
265,59	13,545
265,81	14,066
266,02	1,005
266,23	3,461
266,45	15,462
266,66	10,937
266,87	9,469
267,09	3,987
267,30	12,351
267,52	15,468
267,73	7,533
267,94	5,622
268,16	11,166
268,37	8,031
268,58	8,729
268,80	5,250
269,01	11,257
269,22	13,579
269,44	11,936
269,65	7,251
269,86	6,625
270,08	11,839
270,29	3,718
270,50	3,890
270,72	11,294
270,93	2,164
271,14	4,355
271,36	8,189
271,57	11,397
271,78	9,100
272,00	9,831
272,21	10,769
272,42	8,905
272,64	8,544
272,85	4,847
273,06	4,243
273,28	10,380
273,49	8,835
273,70	11,430
273,92	9,569
274,13	9,967
274,34	4,908
274,56	5,991
274,77	5,811
274,98	10,953
275,20	7,103
275,41	12,147
275,62	5,153
275,84	6,429
276,05	19,555
276,26	2,018
276,47	2,908
276,69	11,496
276,90	9,880
277,11	5,852
277,33	7,535
277,54	15,393
277,75	8,871
277,97	3,747
278,18	6,130
278,39	11,393
278,61	6,433
278,82	7,782
279,03	7,379
279,24	7,961
279,46	7,654
279,67	11,097
279,88	6,031
280,10	12,132
280,31	4,218
280,52	6,708
280,73	1,194
280,95	12,542
281,16	11,190
281,37	6,936
281,59	8,282
281,80	16,171
282,01	8,280
282,22	4,743
282,44	5,134
282,65	15,804
282,86	8,883
283,08	4,023
283,29	7,542
283,50	6,272
283,71	10,399
283,93	8,929
284,14	9,317
284,35	7,004
284,56	8,499
284,78	3,493
284,99	5,439
285,20	12,552
285,42	8,789
285,63	3,721
285,84	3,361
286,05	5,057
286,27	7,589
286,48	5,599
286,69	2,608
286,90	6,776
287,12	4,508
287,33	3,855
287,54	4,981
287,75	11,902
287,97	10,663
288,18	6,577
288,39	3,249
288,60	9,168
288,82	6,858
289,03	7,223
289,24	9,593
289,45	11,621
289,67	7,296
289,88	7,902
290,09	8,028
290,30	7,943
290,52	4,828
290,73	6,574
290,94	0,474
291,15	7,682
291,37	10,717
291,58	5,508
291,79	3,929
292,00	8,133
292,21	8,702
292,43	4,816
292,64	3,278
292,85	4,666
293,06	13,098
293,28	5,606
293,49	1,643
293,70	8,279
293,91	5,770
294,12	5,740
294,34	6,015
294,55	7,490
294,76	7,719
294,97	6,656
295,19	4,247
295,40	8,003
295,61	7,816
295,82	3,176
296,03	8,680
296,25	8,837
296,46	3,661
296,67	2,878
296,88	0,512
297,09	10,571
297,31	7,525
297,52	7,176
297,73	4,890
297,94	7,219
298,15	7,859
298,37	5,994
298,58	6,691
298,79	7,850
299,00	4,669
299,21	4,369
299,43	4,334
299,64	11,889
299,85	7,011
300,06	4,675
300,27	4,858
300,49	10,496
300,70	8,445
300,91	5,570
301,12	4,058
301,33	10,091
301,54	5,640
301,76	7,353
301,97	5,168
302,18	8,489
302,39	10,116
302,60	14,798
302,82	4,721
303,03	11,834
303,24	8,709
303,45	6,640
303,66	6,342
303,87	3,796
304,09	10,410
304,30	4,113
304,51	5,144
304,72	3,712
304,93	8,549
305,14	7,751
305,36	3,885
305,57	3,160
305,78	8,138
305,99	7,197
306,20	6,128
306,41	5,107
306,62	5,454
306,84	2,418
307,05	3,555
307,26	8,718
307,47	13,976
307,68	6,760
307,89	4,914
308,11	8,491
308,32	7,154
308,53	5,737
308,74	6,481
308,95	6,388
309,16	10,056
309,37	9,000
309,59	2,734
309,80	7,082
310,01	7,628
310,22	9,643
310,43	3,446
310,64	7,955
310,85	8,522
311,06	6,336
311,28	7,043
311,49	6,154
311,70	11,031
311,91	4,406
312,12	4,080
312,33	7,965
312,54	8,548
312,75	4,761
312,97	3,790
313,18	6,639
313,39	2,099
313,60	3,676
313,81	4,999
314,02	9,616
314,23	8,758
314,44	3,668
314,65	5,759
314,87	3,993
315,08	4,611
315,29	5,462
315,50	8,090
315,71	8,881
315,92	12,661
316,13	6,753
316,34	8,818
316,55	10,856
316,77	4,244
316,98	4,653
317,19	2,591
317,40	8,547
317,61	12,400
317,82	4,798
318,03	3,734
318,24	5,768
318,45	11,044
318,66	7,078
318,87	4,819
319,09	9,303
319,30	7,672
319,51	8,976
319,72	6,891
319,93	9,906
320,14	9,235
320,35	7,979
320,56	4,773
320,77	4,710
320,98	12,166
321,19	6,568
321,40	5,854
321,62	7,471
321,83	5,957
322,04	6,872
322,25	6,235
322,46	13,653
322,67	11,456
322,88	7,430
323,09	6,394
323,30	11,919
323,51	11,361
323,72	10,518
323,93	5,132
324,14	4,894
324,35	3,122
324,56	3,595
324,77	4,973
324,99	5,688
325,20	0,841
325,41	9,403
325,62	7,337
325,83	2,275
326,04	6,664
326,25	7,998
326,46	2,355
326,67	7,015
326,88	8,639
327,09	3,622
327,30	4,935
327,51	6,913
327,72	10,883
327,93	8,648
328,14	1,730
328,35	6,305
328,56	8,810
328,77	6,371
328,98	8,724
329,19	6,209
329,40	9,778
329,61	6,132
329,82	3,981
330,04	7,307
330,25	5,552
330,46	7,963
330,67	5,957
330,88	6,502
331,09	7,393
331,30	6,293
331,51	7,074
331,72	6,742
331,93	8,925
332,14	5,200
332,35	6,517
332,56	8,391
332,77	8,526
332,98	2,554
333,19	3,029
333,40	7,965
333,61	6,268
333,82	7,582
334,03	9,774
334,24	7,860
334,45	7,379
334,66	10,617
334,87	7,217
335,08	3,053
335,29	7,003
335,50	4,371
335,71	1,737
335,92	9,583
336,13	8,778
336,34	3,389
336,55	8,092
336,76	11,601
336,97	6,152
337,18	4,277
337,39	6,302
337,60	7,928
337,81	6,732
338,02	4,662
338,23	5,556
338,44	5,574
338,65	6,933
338,86	7,994
339,07	5,090
339,28	7,104
339,49	8,785
339,70	2,777
339,91	7,155
340,11	12,577
340,32	6,167
340,53	5,473
340,74	3,990
340,95	4,761
341,16	8,228
341,37	1,935
341,58	6,677
341,79	6,626
342,00	6,738
342,21	4,071
342,42	5,721
342,63	7,854
342,84	4,932
343,05	8,005
343,26	7,344
343,47	9,126
343,68	5,619
343,89	4,420
344,10	5,450
344,31	10,786
344,52	6,191
344,73	2,723
344,94	3,474
345,14	9,464
345,35	10,193
345,56	5,918
345,77	5,226
345,98	7,112
346,19	5,361
346,40	4,189
346,61	5,607
346,82	5,470
347,03	7,777
347,24	7,550
347,45	1,827
347,66	11,536
347,87	6,544
348,08	9,432
348,28	1,518
348,49	5,831
348,70	8,630
348,91	5,643
349,12	1,148
349,33	21,049
349,54	4,758
349,75	7,737
349,96	6,724
350,17	7,154
350,38	4,216
350,59	9,538
350,80	5,132
351,00	8,993
351,21	9,886
351,42	5,802
351,63	4,148
351,84	9,302
352,05	9,633
352,26	6,255
352,47	4,620
352,68	9,919
352,89	10,481
353,09	9,993
353,30	2,625
353,51	6,508
353,72	9,840
353,93	8,715
354,14	5,215
354,35	8,090
354,56	12,584
354,77	6,574
354,98	3,237
355,18	7,618
355,39	10,860
355,60	5,896
355,81	7,135
356,02	8,822
356,23	9,219
356,44	6,004
356,65	8,470
356,85	14,773
357,06	9,209
357,27	7,712
357,48	3,875
357,69	6,049
357,90	6,621
358,11	2,793
358,32	6,779
358,52	9,899
358,73	8,929
358,94	2,820
359,15	7,498
359,36	6,364
359,57	6,500
359,78	5,424
359,98	4,210
360,19	5,098
360,40	7,616
360,61	8,170
360,82	8,269
361,03	12,511
361,24	11,069
361,44	4,544
361,65	6,607
361,86	5,135
362,07	7,385
362,28	7,837
362,49	4,358
362,70	8,449
362,90	7,926
363,11	4,635
363,32	3,366
363,53	7,808
363,74	12,434
363,95	9,927
364,15	7,285
364,36	11,638
364,57	6,855
364,78	5,802
364,99	5,955
365,20	8,926
365,40	12,637
365,61	6,427
365,82	10,779
366,03	10,317
366,24	9,463
366,45	6,331
366,65	6,625
366,86	8,201
367,07	8,285
367,28	4,251
367,49	4,223
367,69	12,456
367,90	6,515
368,11	5,822
368,32	5,420
368,53	10,629
368,73	8,919
368,94	4,088
369,15	6,379
369,36	12,462
369,57	8,808
369,78	5,939
369,98	7,843
370,19	13,280
370,40	5,462
370,61	4,762
370,82	3,503
371,02	10,200
371,23	10,288
371,44	7,141
371,65	5,971
371,85	8,068
372,06	4,789
372,27	6,288
372,48	7,131
372,69	5,513
372,89	7,795
373,10	6,135
373,31	6,804
373,52	7,374
373,73	10,506
373,93	5,566
374,14	9,466
374,35	12,370
374,56	10,503
374,76	5,921
374,97	8,458
375,18	9,059
375,39	6,536
375,60	10,020
375,80	4,454
376,01	8,942
376,22	9,200
376,43	6,650
376,63	11,169
376,84	7,322
377,05	9,119
377,26	5,124
377,46	4,543
377,67	9,597
377,88	8,999
378,09	9,762
378,29	4,658
378,50	7,658
378,71	9,713
378,92	5,710
379,12	7,382
379,33	7,561
379,54	3,992
379,75	8,916
379,95	4,823
380,16	9,836
380,37	11,795
380,58	7,938
380,78	11,157
380,99	6,863
381,20	4,872
381,41	7,003
381,61	9,489
381,82	8,127
382,03	10,730
382,24	8,370
382,44	8,022
382,65	7,909
382,86	6,571
383,06	8,758
383,27	6,933
383,48	7,132
383,69	9,807
383,89	11,512
384,10	8,570
384,31	10,436
384,51	12,261
384,72	10,814
384,93	5,861
385,14	9,654
385,34	9,889
385,55	7,307
385,76	8,456
385,96	17,809
386,17	10,800
386,38	13,596
386,59	4,827
386,79	11,782
387,00	14,569
387,21	13,893
387,41	12,658
387,62	13,623
387,83	17,391
388,03	10,662
388,24	5,804
388,45	14,213
388,66	12,752
388,86	12,626
389,07	10,533
389,28	18,940
389,48	14,270
389,69	13,374
389,90	8,268
390,10	13,248
390,31	16,297
390,52	9,235
390,72	11,525
390,93	15,355
391,14	11,299
391,34	12,980
391,55	14,665
391,76	19,983
391,96	14,635
392,17	11,133
392,38	17,250
392,58	16,503
392,79	15,108
393,00	11,357
393,20	13,352
393,41	13,232
393,62	16,386
393,82	15,475
394,03	15,963
394,24	17,007
394,44	21,578
394,65	15,130
394,86	15,445
395,06	22,670
395,27	17,046
395,48	16,366
395,68	18,710
395,89	18,312
396,10	20,483
396,30	16,696
396,51	14,635
396,72	18,921
396,92	19,071
397,13	22,314
397,34	17,797
397,54	23,958
397,75	20,703
397,95	18,098
398,16	18,231
398,37	22,164
398,57	21,619
398,78	23,500
398,99	26,669
399,19	24,820
399,40	26,680
399,60	20,715
399,81	26,287
400,02	28,513
400,22	26,503
400,43	19,431
400,64	22,246
400,84	19,418
401,05	27,182
401,25	29,568
401,46	26,526
401,67	26,919
401,87	26,062
402,08	21,804
402,29	21,773
402,49	30,428
402,70	28,427
402,90	23,970
403,11	27,564
403,32	27,965
403,52	25,218
403,73	31,551
403,93	31,269
404,14	35,046
404,35	27,444
404,55	23,927
404,76	29,310
404,96	29,308
405,17	36,346
405,38	33,231
405,58	29,409
405,79	30,142
405,99	35,901
406,20	33,194
406,40	25,359
406,61	33,170
406,82	36,067
407,02	34,022
407,23	29,834
407,43	33,226
407,64	28,736
407,85	32,374
408,05	29,409
408,26	43,699
408,46	39,642
408,67	28,710
408,87	33,723
409,08	33,578
409,29	46,184
409,49	36,106
409,70	34,121
409,90	38,742
410,11	39,647
410,31	39,820
410,52	34,192
410,72	34,516
410,93	37,527
411,14	36,453
411,34	35,363
411,55	38,832
411,75	40,526
411,96	40,196
412,16	39,731
412,37	36,265
412,57	39,020
412,78	41,298
412,99	37,488
413,19	42,454
413,40	41,953
413,60	32,690
413,81	39,472
414,01	40,714
414,22	38,937
414,42	36,977
414,63	38,478
414,83	43,409
415,04	46,213
415,24	40,639
415,45	42,893
415,65	42,490
415,86	40,237
416,07	40,604
416,27	40,148
416,48	45,494
416,68	46,395
416,89	39,013
417,09	43,800
417,30	47,585
417,50	42,255
417,71	45,923
417,91	45,102
418,12	44,620
418,32	42,966
418,53	40,710
418,73	42,508
418,94	40,905
419,14	43,738
419,35	40,112
419,55	45,864
419,76	48,716
419,96	43,615
420,17	39,174
420,37	45,065
420,58	47,760
420,78	46,391
420,99	44,581
421,19	50,385
421,40	44,583
421,60	52,025
421,81	42,003
422,01	44,366
422,22	50,476
422,42	52,100
422,63	43,897
422,83	42,060
423,04	47,596
423,24	55,252
423,45	42,184
423,65	47,888
423,86	49,670
424,06	48,682
424,27	45,648
424,47	43,075
424,67	46,376
424,88	49,630
425,08	43,392
425,29	53,266
425,49	47,752
425,70	41,887
425,90	46,284
426,11	43,460
426,31	46,064
426,52	46,307
426,72	46,611
426,93	44,738
427,13	49,059
427,33	47,217
427,54	50,482
427,74	51,225
427,95	55,289
428,15	43,644
428,36	48,984
428,56	40,817
428,77	51,401
428,97	49,216
429,18	50,367
429,38	42,241
429,58	51,296
429,79	49,106
429,99	45,533
430,20	42,206
430,40	50,096
430,61	49,756
430,81	45,212
431,01	50,577
431,22	52,090
431,42	50,921
431,63	44,049
431,83	46,739
432,04	49,021
432,24	52,082
432,44	47,412
432,65	47,114
432,85	44,458
433,06	48,081
433,26	44,096
433,47	43,881
433,67	44,536
433,87	46,090
434,08	43,774
434,28	44,457
434,49	45,713
434,69	49,944
434,89	46,440
435,10	43,641
435,30	53,157
435,51	41,384
435,71	45,201
435,91	44,565
436,12	48,357
436,32	46,464
436,53	45,906
436,73	45,539
436,93	51,057
437,14	50,143
437,34	46,114
437,55	48,710
437,75	49,076
437,95	49,229
438,16	48,657
438,36	51,576
438,57	44,143
438,77	45,541
438,97	45,508
439,18	51,831
439,38	46,344
439,58	46,803
439,79	48,019
439,99	43,339
440,20	55,119
440,40	48,646
440,60	45,394
440,81	53,043
441,01	55,229
441,21	49,850
441,42	50,354
441,62	53,971
441,83	50,101
442,03	49,609
442,23	46,982
442,44	48,652
442,64	52,030
442,84	46,700
443,05	46,929
443,25	44,473
443,45	51,599
443,66	48,805
443,86	49,594
444,06	46,957
444,27	47,280
444,47	52,027
444,67	47,799
444,88	48,618
445,08	49,866
445,28	51,272
445,49	44,384
445,69	42,348
445,90	48,810
446,10	52,249
446,30	48,770
446,51	46,470
446,71	58,563
446,91	52,686
447,12	56,938
447,32	49,830
447,52	51,971
447,72	53,791
447,93	47,046
448,13	40,976
448,33	56,212
448,54	53,069
448,74	45,172
448,94	47,844
449,15	54,040
449,35	58,239
449,55	51,056
449,76	53,492
449,96	54,088
450,16	54,730
450,37	49,833
450,57	49,866
450,77	47,131
450,98	50,319
451,18	52,079
451,38	46,297
451,58	52,797
451,79	51,444
451,99	49,765
452,19	51,155
452,40	55,291
452,60	48,119
452,80	44,994
453,00	52,537
453,21	49,533
453,41	53,553
453,61	49,928
453,82	53,404
454,02	48,820
454,22	55,559
454,42	50,011
454,63	46,735
454,83	50,069
455,03	51,593
455,24	47,543
455,44	49,914
455,64	50,323
455,84	51,035
456,05	48,364
456,25	48,624
456,45	50,601
456,65	53,647
456,86	49,390
457,06	50,646
457,26	55,712
457,47	53,958
457,67	53,698
457,87	48,652
458,07	50,011
458,28	56,084
458,48	51,942
458,68	47,834
458,88	58,434
459,09	52,356
459,29	56,374
459,49	47,081
459,69	51,309
459,90	58,111
460,10	54,860
460,30	49,896
460,50	49,014
460,71	51,499
460,91	50,690
461,11	48,850
461,31	49,524
461,52	56,173
461,72	46,646
461,92	49,880
462,12	57,680
462,32	48,224
462,53	49,403
462,73	52,500
462,93	54,908
463,13	56,430
463,34	50,426
463,54	48,832
463,74	52,071
463,94	50,892
464,14	54,054
464,35	44,535
464,55	57,190
464,75	55,137
464,95	50,417
465,16	48,156
465,36	55,611
465,56	49,560
465,76	50,388
465,96	51,220
466,17	50,760
466,37	47,743
466,57	54,269
466,77	50,775
466,97	49,901
467,18	52,132
467,38	51,467
467,58	47,735
467,78	57,858
467,98	53,383
468,19	52,278
468,39	50,333
468,59	52,740
468,79	52,144
468,99	46,720
469,19	46,768
469,40	52,100
469,60	52,060
469,80	50,640
470,00	51,750
470,20	55,378
470,41	47,504
470,61	54,706
470,81	51,959
471,01	51,294
471,21	54,417
471,41	49,843
471,62	50,674
471,82	45,597
472,02	49,825
472,22	51,710
472,42	46,718
472,62	58,265
472,83	47,475
473,03	52,220
473,23	49,959
473,43	53,152
473,63	55,308
473,83	48,171
474,03	49,710
474,24	53,303
474,44	50,962
474,64	50,091
474,84	50,477
475,04	54,041
475,24	51,498
475,45	47,327
475,65	47,290
475,85	51,470
476,05	43,920
476,25	47,850
476,45	50,285
476,65	55,440
476,85	52,257
477,06	48,806
477,26	47,535
477,46	51,750
477,66	50,759
477,86	49,878
478,06	46,284
478,26	58,154
478,46	47,993
478,67	50,463
478,87	46,871
479,07	51,163
479,27	50,065
479,47	50,264
479,67	43,203
479,87	44,287
480,07	53,720
480,28	48,833
480,48	48,273
480,68	51,885
480,88	55,497
481,08	48,455
481,28	50,541
481,48	51,200
481,68	47,967
481,88	46,428
482,08	46,746
482,29	52,150
482,49	45,888
482,69	47,134
482,89	47,851
483,09	47,804
483,29	46,343
483,49	44,765
483,69	46,869
483,89	45,600
484,09	44,773
484,29	43,381
484,50	47,085
484,70	51,104
484,90	44,781
485,10	45,640
485,30	46,773
485,50	52,724
485,70	49,063
485,90	44,929
486,10	42,234
486,30	45,802
486,50	47,855
486,70	44,734
486,90	47,496
487,10	50,453
487,30	48,896
487,51	48,615
487,71	42,412
487,91	45,634
488,11	51,231
488,31	40,360
488,51	45,861
488,71	44,922
488,91	49,346
489,11	42,187
489,31	44,617
489,51	45,648
489,71	47,647
489,91	46,818
490,11	43,848
490,31	43,945
490,51	50,501
490,71	43,011
490,91	44,694
491,11	45,369
491,31	46,539
491,51	43,061
491,72	46,072
491,92	50,866
492,12	49,856
492,32	44,835
492,52	48,507
492,72	44,225
492,92	48,041
493,12	48,608
493,32	45,086
493,52	45,110
493,72	46,836
493,92	49,685
494,12	49,643
494,32	47,611
494,52	43,182
494,72	46,617
494,92	45,676
495,12	49,502
495,32	49,017
495,52	46,589
495,72	48,944
495,92	51,627
496,12	50,030
496,32	43,534
496,52	47,109
496,72	47,558
496,92	49,984
497,12	47,063
497,32	49,026
497,52	48,708
497,72	51,342
497,92	51,737
498,12	48,198
498,32	49,799
498,52	49,670
498,72	44,283
498,92	46,943
499,12	48,529
499,32	43,285
499,52	51,394
499,72	47,755
499,92	49,927
500,12	50,855
500,32	51,433
500,52	47,053
500,72	55,346
500,91	51,772
501,11	47,567
501,31	44,576
501,51	53,122
501,71	53,069
501,91	49,816
502,11	46,359
502,31	50,373
502,51	51,028
502,71	47,628
502,91	47,580
503,11	49,757
503,31	51,965
503,51	44,398
503,71	46,339
503,91	51,185
504,11	50,756
504,31	49,136
504,51	49,458
504,71	51,636
504,91	48,220
505,10	49,671
505,30	48,046
505,50	48,289
505,70	49,222
505,90	50,702
506,10	45,190
506,30	48,537
506,50	50,766
506,70	52,014
506,90	48,824
507,10	50,711
507,30	48,796
507,50	46,849
507,70	48,448
507,89	51,035
508,09	48,813
508,29	47,078
508,49	47,821
508,69	47,808
508,89	48,411
509,09	47,330
509,29	45,545
509,49	51,831
509,69	52,322
509,89	49,832
510,09	44,449
510,28	49,031
510,48	48,936
510,68	47,208
510,88	46,915
511,08	50,639
511,28	47,619
511,48	46,770
511,68	46,338
511,88	43,540
512,07	48,605
512,27	48,275
512,47	45,702
512,67	45,987
512,87	46,061
513,07	46,018
513,27	46,135
513,47	47,279
513,67	45,430
513,86	46,432
514,06	45,948
514,26	46,044
514,46	49,695
514,66	44,711
514,86	46,870
515,06	51,527
515,26	50,019
515,45	45,590
515,65	44,926
515,85	48,435
516,05	45,039
516,25	46,752
516,45	46,592
516,65	43,397
516,84	49,526
517,04	49,841
517,24	44,170
517,44	45,244
517,64	50,158
517,84	48,524
518,04	47,759
518,23	49,288
518,43	51,213
518,63	45,401
518,83	45,164
519,03	47,378
519,23	48,819
519,42	45,459
519,62	44,735
519,82	43,996
520,02	47,511
520,22	46,428
520,42	44,004
520,61	46,018
520,81	50,057
521,01	48,526
521,21	46,050
521,41	46,051
521,61	49,898
521,80	42,917
522,00	47,549
522,20	50,247
522,40	47,807
522,60	44,992
522,79	45,294
522,99	50,536
523,19	43,789
523,39	43,397
523,59	43,689
523,78	49,211
523,98	43,177
524,18	47,694
524,38	42,833
524,58	43,996
524,77	46,664
524,97	47,780
525,17	44,609
525,37	42,630
525,57	51,333
525,76	42,515
525,96	44,913
526,16	42,850
526,36	44,871
526,56	43,353
526,75	41,688
526,95	46,044
527,15	44,901
527,35	44,559
527,55	44,842
527,74	47,619
527,94	42,479
528,14	43,580
528,34	41,667
528,53	41,482
528,73	46,086
528,93	45,183
529,13	44,075
529,32	41,684
529,52	43,118
529,72	41,390
529,92	43,614
530,12	42,730
530,31	40,410
530,51	43,034
530,71	42,049
530,91	43,565
531,10	40,301
531,30	43,248
531,50	40,485
531,70	45,025
531,89	41,259
532,09	40,724
532,29	40,734
532,49	41,742
532,68	42,756
532,88	39,436
533,08	41,521
533,28	42,735
533,47	40,533
533,67	42,490
533,87	39,084
534,06	48,022
534,26	41,348
534,46	40,799
534,66	43,720
534,85	41,683
535,05	35,970
535,25	38,799
535,45	39,964
535,64	44,212
535,84	41,891
536,04	39,625
536,23	41,586
536,43	45,787
536,63	38,705
536,83	38,535
537,02	40,219
537,22	38,724
537,42	38,602
537,61	36,445
537,81	39,717
538,01	39,133
538,20	40,535
538,40	35,852
538,60	37,794
538,80	38,759
538,99	37,965
539,19	36,194
539,39	36,623
539,58	37,540
539,78	33,843
539,98	32,524
540,17	32,965
540,37	35,506
540,57	34,281
540,76	31,985
540,96	31,494
541,16	33,631
541,36	30,700
541,55	27,023
541,75	26,465
541,95	28,984
542,14	29,569
542,34	27,892
542,54	28,841
542,73	30,791
542,93	29,021
543,13	29,091
543,32	26,196
543,52	30,762
543,72	26,747
543,91	28,970
544,11	27,198
544,31	28,142
544,50	28,786
544,70	30,049
544,89	28,336
545,09	31,446
545,29	30,094
545,48	29,249
545,68	28,381
545,88	30,475
546,07	29,705
546,27	30,739
546,47	30,353
546,66	33,034
546,86	32,954
547,06	31,068
547,25	31,195
547,45	35,598
547,64	33,896
547,84	37,750
548,04	35,538
548,23	37,962
548,43	35,354
548,63	38,838
548,82	37,176
549,02	34,978
549,21	34,528
549,41	35,628
549,61	36,773
549,80	35,449
550,00	38,577
550,20	33,156
550,39	36,502
550,59	34,865
550,78	38,332
550,98	35,085
551,18	37,422
551,37	37,421
551,57	36,330
551,76	34,641
551,96	35,447
552,16	35,775
552,35	38,081
552,55	36,211
552,74	37,069
552,94	40,501
553,14	35,571
553,33	34,730
553,53	36,516
553,72	39,235
553,92	42,099
554,12	37,992
554,31	37,245
554,51	40,746
554,70	34,106
554,90	36,642
555,09	40,319
555,29	40,374
555,49	40,514
555,68	40,014
555,88	37,005
556,07	37,895
556,27	39,292
556,46	37,806
556,66	35,965
556,86	40,518
557,05	37,300
557,25	37,414
557,44	37,801
557,64	38,780
557,83	38,333
558,03	38,270
558,22	37,710
558,42	39,236
558,62	39,925
558,81	37,312
559,01	37,682
559,20	39,957
559,40	37,865
559,59	37,651
559,79	35,000
559,98	40,242
560,18	40,089
560,37	37,562
560,57	40,998
560,76	38,537
560,96	37,987
561,16	40,554
561,35	38,416
561,55	41,023
561,74	40,276
561,94	39,786
562,13	37,899
562,33	42,736
562,52	39,962
562,72	39,315
562,91	34,649
563,11	38,123
563,30	40,358
563,50	37,278
563,69	37,155
563,89	36,174
564,08	37,386
564,28	36,764
564,47	38,914
564,67	37,736
564,86	39,689
565,06	37,053
565,25	39,190
565,45	37,686
565,64	42,575
565,84	36,483
566,03	36,999
566,23	40,528
566,42	39,645
566,62	38,871
566,81	37,984
567,01	38,692
567,20	39,658
567,40	35,418
567,59	35,357
567,79	42,315
567,98	43,517
568,18	39,204
568,37	40,479
568,57	39,313
568,76	38,448
568,96	36,627
569,15	37,333
569,35	39,975
569,54	41,695
569,73	41,998
569,93	36,723
570,12	37,569
570,32	42,349
570,51	40,746
570,71	38,370
570,90	39,618
571,10	39,712
571,29	38,302
571,49	38,781
571,68	38,855
571,87	38,076
572,07	39,571
572,26	37,072
572,46	39,938
572,65	40,670
572,85	37,308
573,04	39,343
573,24	39,410
573,43	41,961
573,62	41,776
573,82	39,667
574,01	40,772
574,21	38,855
574,40	36,710
574,60	36,101
574,79	43,329
574,98	39,620
575,18	38,788
575,37	37,304
575,57	40,813
575,76	39,957
575,96	40,137
576,15	39,455
576,34	40,779
576,54	40,285
576,73	39,526
576,93	39,281
577,12	40,671
577,31	40,576
577,51	38,310
577,70	40,573
577,90	38,879
578,09	39,972
578,28	38,854
578,48	38,873
578,67	42,279
578,87	41,796
579,06	39,861
579,25	40,531
579,45	41,046
579,64	39,031
579,84	40,568
580,03	39,978
580,22	45,029
580,42	39,685
580,61	39,820
580,81	39,297
581,00	41,088
581,19	40,843
581,39	40,690
581,58	39,686
581,77	40,573
581,97	43,663
582,16	39,759
582,35	39,993
582,55	39,933
582,74	43,129
582,94	41,393
583,13	39,672
583,32	40,521
583,52	42,276
583,71	41,167
583,90	41,569
584,10	41,580
584,29	42,927
584,48	39,466
584,68	40,165
584,87	42,960
585,06	41,559
585,26	38,861
585,45	40,859
585,65	44,607
585,84	42,112
586,03	41,454
586,23	40,833
586,42	42,072
586,61	46,137
586,81	42,402
587,00	42,656
587,19	41,982
587,39	44,372
587,58	41,871
587,77	42,057
587,97	41,656
588,16	41,138
588,35	44,386
588,54	43,183
588,74	43,434
588,93	45,595
589,12	42,919
589,32	43,190
589,51	44,426
589,70	42,010
589,90	42,071
590,09	41,761
590,28	47,817
590,48	42,761
590,67	43,118
590,86	43,877
591,06	45,586
591,25	46,821
591,44	44,668
591,63	44,973
591,83	45,966
592,02	44,608
592,21	44,439
592,41	43,641
592,60	45,581
592,79	46,465
592,98	46,857
593,18	44,660
593,37	45,586
593,56	47,267
593,76	46,236
593,95	45,473
594,14	45,963
594,33	49,274
594,53	44,201
594,72	46,506
594,91	49,692
595,10	47,699
595,30	47,002
595,49	45,327
595,68	50,475
595,88	46,629
596,07	46,482
596,26	48,321
596,45	47,990
596,65	44,817
596,84	46,295
597,03	46,854
597,22	48,592
597,42	49,741
597,61	46,810
597,80	47,933
597,99	49,754
598,19	49,307
598,38	49,794
598,57	47,896
598,76	50,755
598,95	52,374
599,15	49,183
599,34	49,693
599,53	49,360
599,72	48,132
599,92	50,719
600,11	47,990
600,30	50,168
600,49	51,176
600,69	48,452
600,88	50,017
601,07	51,421
601,26	50,754
601,45	49,662
601,65	48,966
601,84	52,401
602,03	49,818
602,22	51,495
602,42	51,934
602,61	49,170
602,80	51,878
602,99	50,220
603,18	48,337
603,38	51,353
603,57	50,080
603,76	51,764
603,95	48,912
604,14	52,348
604,34	51,497
604,53	51,049
604,72	51,626
604,91	51,172
605,10	52,384
605,29	51,832
605,49	49,195
605,68	52,390
605,87	53,108
606,06	51,329
606,25	50,167
606,45	51,564
606,64	52,981
606,83	52,951
607,02	50,963
607,21	51,416
607,40	50,869
607,60	48,735
607,79	48,374
607,98	47,704
608,17	48,195
608,36	48,125
608,55	47,420
608,75	48,438
608,94	48,003
609,13	44,814
609,32	41,740
609,51	45,246
609,70	42,021
609,89	43,442
610,09	43,328
610,28	44,882
610,47	42,631
610,66	43,894
610,85	40,033
611,04	44,484
611,23	42,457
611,43	41,073
611,62	42,574
611,81	43,619
612,00	43,994
612,19	42,185
612,38	43,524
612,57	44,601
612,77	45,649
612,96	44,289
613,15	45,464
613,34	50,138
613,53	46,868
613,72	48,136
613,91	46,586
614,10	46,898
614,29	49,586
614,49	46,772
614,68	47,979
614,87	48,775
615,06	52,840
615,25	47,213
615,44	51,166
615,63	51,125
615,82	49,797
616,01	49,079
616,21	50,249
616,40	51,817
616,59	52,922
616,78	50,265
616,97	51,479
617,16	50,074
617,35	51,882
617,54	51,169
617,73	54,376
617,92	50,593
618,11	54,854
618,31	49,023
618,50	50,731
618,69	51,383
618,88	50,705
619,07	47,979
619,26	49,821
619,45	49,890
619,64	51,832
619,83	50,443
620,02	48,692
620,21	54,709
620,40	53,572
620,59	52,571
620,78	49,033
620,97	51,710
621,17	52,622
621,36	49,027
621,55	50,543
621,74	51,579
621,93	52,940
622,12	50,762
622,31	50,333
622,50	51,517
622,69	52,936
622,88	53,051
623,07	55,997
623,26	53,207
623,45	54,466
623,64	51,687
623,83	49,997
624,02	53,773
624,21	55,418
624,40	52,849
624,59	51,342
624,78	52,913
624,97	54,957
625,16	50,335
625,35	49,375
625,54	50,199
625,73	51,091
625,92	52,275
626,12	55,768
626,31	52,799
626,50	54,580
626,69	53,386
626,88	51,358
627,07	52,395
627,26	52,964
627,45	50,174
627,64	51,363
627,83	53,614
628,02	51,133
628,21	52,031
628,40	51,246
628,59	53,714
628,78	51,198
628,97	50,839
629,16	49,333
629,35	51,646
629,54	54,594
629,73	52,072
629,92	50,448
630,10	51,728
630,29	52,025
630,48	51,552
630,67	50,045
630,86	54,777
631,05	53,191
631,24	53,687
631,43	49,070
631,62	51,942
631,81	53,363
632,00	52,290
632,19	50,681
632,38	53,314
632,57	49,829
632,76	51,831
632,95	52,949
633,14	54,306
633,33	54,664
633,52	53,275
633,71	53,627
633,90	51,457
634,09	54,602
634,28	52,460
634,47	51,745
634,66	54,259
634,85	53,782
635,04	53,597
635,22	52,991
635,41	53,432
635,60	56,752
635,79	55,283
635,98	51,810
636,17	53,878
636,36	52,902
636,55	52,450
636,74	51,747
636,93	54,264
637,12	54,660
637,31	54,000
637,50	51,396
637,69	53,986
637,87	55,006
638,06	53,898
638,25	52,078
638,44	54,577
638,63	49,607
638,82	52,945
639,01	52,527
639,20	52,507
639,39	56,578
639,58	51,973
639,77	53,519
639,95	52,872
640,14	54,602
640,33	50,417
640,52	51,838
640,71	53,799
640,90	53,942
641,09	54,459
641,28	51,980
641,47	53,839
641,66	54,004
641,84	52,633
642,03	53,156
642,22	53,754
642,41	56,836
642,60	51,751
642,79	54,271
642,98	53,952
643,17	52,759
643,35	50,203
643,54	52,021
643,73	54,215
643,92	53,172
644,11	52,072
644,30	50,404
644,49	55,104
644,67	53,227
644,86	52,458
645,05	56,108
645,24	52,383
645,43	53,014
645,62	52,440
645,81	53,348
645,99	54,170
646,18	56,529
646,37	51,973
646,56	53,527
646,75	55,185
646,94	56,799
647,13	52,772
647,31	53,787
647,50	53,706
647,69	56,541
647,88	53,598
648,07	54,358
648,26	58,569
648,44	51,903
648,63	52,641
648,82	53,491
649,01	57,884
649,20	53,019
649,38	51,343
649,57	54,693
649,76	50,786
649,95	53,774
650,14	51,191
650,33	51,012
650,51	53,033
650,70	55,115
650,89	54,027
651,08	52,520
651,27	53,280
651,45	52,702
651,64	52,133
651,83	53,028
652,02	54,080
652,21	53,217
652,39	53,853
652,58	52,598
652,77	52,470
652,96	54,029
653,15	54,069
653,33	52,995
653,52	55,156
653,71	57,223
653,90	54,184
654,09	53,885
654,27	55,059
654,46	56,340
654,65	55,759
654,84	55,022
655,02	55,977
655,21	55,648
655,40	56,794
655,59	55,503
655,77	57,522
655,96	56,576
656,15	56,246
656,34	56,584
656,53	55,648
656,71	55,618
656,90	54,423
657,09	57,683
657,28	57,162
657,46	54,278
657,65	53,673
657,84	52,252
658,03	54,547
658,21	53,621
658,40	52,751
658,59	53,170
658,78	55,710
658,96	53,325
659,15	53,131
659,34	50,053
659,52	54,532
659,71	52,807
659,90	51,741
660,09	54,906
660,27	53,325
660,46	55,373
660,65	52,121
660,84	50,409
661,02	53,966
661,21	52,356
661,40	52,300
661,58	53,042
661,77	52,098
661,96	50,886
662,15	52,053
662,33	50,922
662,52	51,418
662,71	53,517
662,89	51,446
663,08	50,025
663,27	52,688
663,45	52,303
663,64	51,798
663,83	49,438
664,02	51,877
664,20	51,714
664,39	50,787
664,58	52,018
664,76	51,384
664,95	51,775
665,14	51,367
665,32	49,563
665,51	51,943
665,70	53,136
665,88	52,826
666,07	50,950
666,26	54,316
666,44	52,693
666,63	52,432
666,82	51,614
667,00	52,354
667,19	49,042
667,38	53,133
667,56	52,110
667,75	52,584
667,94	52,360
668,12	49,513
668,31	51,949
668,50	50,668
668,68	51,949
668,87	49,634
669,06	51,609
669,24	54,195
669,43	51,863
669,62	48,521
669,80	49,462
669,99	51,446
670,18	53,513
670,36	50,316
670,55	50,679
670,74	51,871
670,92	48,747
671,11	51,433
671,29	49,579
671,48	52,476
671,67	52,569
671,85	50,908
672,04	49,466
672,23	50,112
672,41	50,768
672,60	49,173
672,78	49,540
672,97	50,948
673,16	52,429
673,34	48,882
673,53	48,330
673,71	51,858
673,90	52,123
674,09	50,260
674,27	49,206
674,46	50,024
674,64	50,371
674,83	51,200
675,02	48,558
675,20	51,070
675,39	49,100
675,57	50,734
675,76	49,770
675,95	53,525
676,13	50,917
676,32	52,560
676,50	51,308
676,69	46,678
676,88	50,733
677,06	49,053
677,25	50,792
677,43	54,732
677,62	53,784
677,80	48,935
677,99	50,808
678,18	51,447
678,36	54,493
678,55	48,475
678,73	49,891
678,92	50,815
679,10	52,799
679,29	50,445
679,48	49,320
679,66	50,518
679,85	50,856
680,03	50,468
680,22	51,087
680,40	51,277
680,59	52,331
680,77	51,359
680,96	49,842
681,15	51,467
681,33	52,552
681,52	50,516
681,70	50,596
681,89	52,308
682,07	52,056
682,26	50,111
682,44	52,099
682,63	51,725
682,81	51,951
683,00	51,206
683,18	48,511
683,37	52,706
683,55	50,314
683,74	50,954
683,92	57,086
684,11	53,284
684,29	53,690
684,48	49,093
684,67	50,516
684,85	53,697
685,04	52,913
685,22	52,030
685,41	51,435
685,59	52,135
685,78	51,247
685,96	48,539
686,15	50,173
686,33	49,641
686,52	51,769
686,70	51,715
686,89	53,379
687,07	52,568
687,26	54,117
687,44	52,478
687,62	51,454
687,81	53,263
687,99	52,268
688,18	51,124
688,36	53,166
688,55	53,488
688,73	52,251
688,92	50,298
689,10	52,288
689,29	55,120
689,47	54,353
689,66	50,296
689,84	52,033
690,03	56,331
690,21	53,500
690,40	52,370
690,58	50,687
690,76	51,607
690,95	54,398
691,13	51,573
691,32	51,834
691,50	54,290
691,69	54,574
691,87	51,575
692,06	51,156
692,24	53,091
692,43	54,461
692,61	49,451
692,79	51,179
692,98	49,971
693,16	56,831
693,35	51,448
693,53	54,258
693,72	52,716
693,90	54,466
694,08	51,214
694,27	51,834
694,45	55,992
694,64	56,962
694,82	52,600
695,01	51,617
695,19	51,871
695,37	53,139
695,56	51,534
695,74	51,648
695,93	53,825
696,11	52,166
696,29	52,051
696,48	53,787
696,66	54,356
696,85	52,428
697,03	51,353
697,21	55,798
697,40	54,607
697,58	54,112
697,77	51,982
697,95	54,114
698,13	55,856
698,32	52,938
698,50	51,565
698,69	52,862
698,87	55,288
699,05	53,529
699,24	52,332
699,42	52,861
699,60	51,307
699,79	54,650
699,97	54,617
700,16	50,367
700,34	55,331
700,52	52,772
700,71	51,680
700,89	51,874
701,07	53,649
701,26	53,872
701,44	53,650
701,63	50,025
701,81	53,643
701,99	53,059
702,18	51,257
702,36	51,852
702,54	52,995
702,73	53,718
702,91	51,731
703,09	51,866
703,28	52,813
703,46	54,184
703,64	53,744
703,83	52,587
704,01	52,881
704,19	53,169
704,38	51,927
704,56	51,856
704,74	55,552
704,93	53,724
705,11	51,801
705,29	52,441
705,48	58,623
705,66	53,422
705,84	53,279
706,03	52,151
706,21	53,523
706,39	53,100
706,58	50,552
706,76	52,975
706,94	53,364
707,12	51,455
707,31	50,533
707,49	52,001
707,67	52,755
707,86	53,968
708,04	52,716
708,22	49,231
708,41	53,544
708,59	52,778
708,77	50,671
708,95	52,460
709,14	55,367
709,32	55,181
709,50	51,948
709,69	51,790
709,87	52,425
710,05	54,243
710,23	51,990
710,42	49,660
710,60	52,120
710,78	54,379
710,97	52,383
711,15	52,171
711,33	54,773
711,51	52,510
711,70	52,594
711,88	51,321
712,06	55,627
712,24	53,597
712,43	52,685
712,61	52,025
712,79	52,721
712,97	51,813
713,16	53,773
713,34	51,626
713,52	55,770
713,70	54,463
713,89	52,981
714,07	51,994
714,25	51,973
714,43	55,438
714,62	50,296
714,80	51,889
714,98	48,810
715,16	53,329
715,35	50,682
715,53	50,810
715,71	53,957
715,89	56,083
716,07	53,480
716,26	54,975
716,44	54,243
716,62	55,059
716,80	52,940
716,99	51,403
717,17	54,908
717,35	53,268
717,53	51,363
717,71	52,606
717,90	52,781
718,08	53,175
718,26	48,886
718,44	53,878
718,62	55,216
718,81	54,661
718,99	52,563
719,17	51,283
719,35	52,444
719,53	53,961
719,72	51,797
719,90	54,428
720,08	51,676
720,26	54,491
720,44	52,750
720,62	50,486
720,81	54,499
720,99	57,508
721,17	51,452
721,35	53,608
721,53	54,088
721,72	55,305
721,90	53,266
722,08	53,551
722,26	55,060
722,44	53,066
722,62	53,518
722,81	51,033
722,99	53,513
723,17	52,853
723,35	53,751
723,53	52,092
723,71	55,384
723,89	55,714
724,08	50,128
724,26	52,673
724,44	53,610
724,62	53,354
724,80	52,336
724,98	51,568
725,16	56,317
725,35	52,383
725,53	52,147
725,71	52,493
725,89	53,450
726,07	55,999
726,25	56,213
726,43	52,496
726,61	52,937
726,80	54,138
726,98	50,091
727,16	52,244
727,34	54,019
727,52	53,581
727,70	52,609
727,88	51,851
728,06	50,110
728,25	50,296
728,43	52,953
728,61	51,724
728,79	53,706
728,97	53,172
729,15	52,970
729,33	52,028
729,51	56,201
729,69	55,193
729,87	53,866
730,06	52,086
730,24	55,091
730,42	56,309
730,60	51,339
730,78	52,906
730,96	53,219
731,14	54,589
731,32	53,697
731,50	51,453
731,68	50,404
731,86	56,105
732,04	51,695
732,22	51,010
732,41	57,874
732,59	53,225
732,77	55,593
732,95	55,357
733,13	56,299
733,31	54,537
733,49	52,384
733,67	55,495
733,85	54,802
734,03	53,881
734,21	53,603
734,39	53,781
734,57	58,298
734,75	54,547
734,93	52,765
735,11	52,484
735,29	52,052
735,47	54,533
735,65	49,680
735,84	51,571
736,02	52,595
736,20	57,060
736,38	53,113
736,56	51,301
736,74	53,680
736,92	52,200
737,10	54,197
737,28	52,550
737,46	53,459
737,64	52,697
737,82	53,145
738,00	53,842
738,18	54,195
738,36	53,803
738,54	51,714
738,72	50,424
738,90	52,278
739,08	55,938
739,26	47,792
739,44	54,395
739,62	54,742
739,80	55,226
739,98	51,886
740,16	53,425
740,34	53,427
740,52	55,929
740,70	52,542
740,88	51,252
741,06	53,423
741,24	53,949
741,42	53,449
741,60	51,352
741,78	54,908
741,96	52,653
742,14	54,200
742,32	50,176
742,50	54,753
742,68	54,130
742,86	51,475
743,04	50,862
743,21	54,224
743,39	54,302
743,57	51,243
743,75	51,855
743,93	51,713
744,11	50,868
744,29	52,965
744,47	51,519
744,65	52,574
744,83	52,100
745,01	50,985
745,19	52,932
745,37	55,164
745,55	53,905
745,73	53,278
745,91	52,278
746,09	52,479
746,27	53,304
746,45	49,068
746,62	52,777
746,80	51,313
746,98	54,011
747,16	51,147
747,34	51,879
747,52	52,976
747,70	52,009
747,88	52,264
748,06	51,770
748,24	53,891
748,42	54,964
748,60	50,999
748,78	50,437
748,95	55,495
749,13	58,109
749,31	50,904
749,49	51,508
749,67	52,990
749,85	56,171
750,03	50,644
750,21	52,136
750,39	53,873
750,57	57,574
750,74	52,921
750,92	50,436
751,10	54,678
751,28	52,241
751,46	51,717
751,64	53,661
751,82	53,035
752,00	53,815
752,17	51,541
752,35	51,420
752,53	53,481
752,71	51,968
752,89	52,953
753,07	52,585
753,25	53,908
753,43	52,342
753,60	55,230
753,78	51,609
753,96	54,860
754,14	53,389
754,32	52,613
754,50	52,815
754,68	55,260
754,85	54,082
755,03	51,901
755,21	53,034
755,39	55,882
755,57	55,175
755,75	52,246
755,92	51,197
756,10	53,919
756,28	55,374
756,46	52,620
756,64	54,404
756,82	53,202
756,99	53,268
757,17	52,021
757,35	53,026
757,53	56,205
757,71	56,746
757,89	52,102
758,06	53,736
758,24	55,332
758,42	53,595
758,60	51,019
758,78	52,167
758,95	55,488
759,13	55,229
759,31	54,171
759,49	53,079
759,67	52,083
759,84	52,235
760,02	53,325
760,20	53,592
760,38	54,120
760,56	51,419
760,73	53,226
760,91	54,126
761,09	54,579
761,27	53,900
761,45	52,443
761,62	50,230
761,80	53,533
761,98	54,796
762,16	52,873
762,33	51,374
762,51	54,236
762,69	52,532
762,87	52,499
763,05	52,566
763,22	52,051
763,40	52,347
763,58	53,403
763,76	52,436
763,93	55,526
764,11	54,475
764,29	54,480
764,47	54,415
764,64	54,623
764,82	56,504
765,00	52,988
765,18	50,269
765,35	52,679
765,53	51,906
765,71	53,251
765,89	50,969
766,06	52,943
766,24	53,843
766,42	52,359
766,60	52,406
766,77	53,901
766,95	54,303
767,13	55,026
767,30	51,499
767,48	53,432
767,66	52,405
767,84	52,716
768,01	53,408
768,19	54,362
768,37	53,699
768,54	52,602
768,72	54,469
768,90	52,926
769,08	54,366
769,25	54,912
769,43	53,170
769,61	50,799
769,78	53,588
769,96	52,612
770,14	54,493
770,31	56,615
770,49	57,265
770,67	53,014
770,85	51,598
771,02	52,558
771,20	52,470
771,38	54,337
771,55	53,681
771,73	51,874
771,91	55,479
772,08	52,720
772,26	51,793
772,44	51,578
772,61	53,965
772,79	49,600
772,97	51,540
773,14	50,561
773,32	54,210
773,50	53,242
773,67	52,127
773,85	56,443
774,03	53,619
774,20	49,395
774,38	53,317
774,56	54,598
774,73	55,226
774,91	51,559
775,09	52,652
775,26	56,047
775,44	53,788
775,61	52,976
775,79	50,392
775,97	53,879
776,14	54,557
776,32	51,124
776,50	51,228
776,67	54,443
776,85	53,013
777,03	50,524
777,20	50,739
777,38	54,408
777,55	54,834
777,73	51,591
777,91	52,153
778,08	55,422
778,26	51,099
778,43	53,988
778,61	49,660
778,79	52,352
778,96	51,213
779,14	50,448
779,32	53,606
779,49	53,045
779,67	58,361
779,84	50,911
780,02	53,138
780,20	51,074
780,37	55,541
780,55	51,106
780,72	52,843
780,90	53,426
781,07	56,116
781,25	54,862
781,43	53,775
781,60	54,181
781,78	53,411
781,95	53,621
782,13	53,617
782,30	55,894
782,48	55,436
782,66	50,698
782,83	51,770
783,01	61,196
783,18	54,976
783,36	54,323
783,53	53,836
783,71	53,201
783,89	53,848
784,06	54,980
784,24	55,156
784,41	53,316
784,59	53,983
784,76	56,686
784,94	51,884
785,11	54,040
785,29	51,167
785,46	53,785
785,64	47,601
785,82	55,686
785,99	58,083
786,17	51,476
786,34	51,552
786,52	55,645
786,69	58,438
786,87	52,456
787,04	50,809
787,22	51,524
787,39	54,864
787,57	55,200
787,74	53,691
787,92	57,455
788,09	59,333
788,27	53,530
788,44	52,087
788,62	56,518
788,79	54,889
788,97	56,988
789,14	53,014
789,32	51,963
789,49	53,940
789,67	54,873
789,84	54,379
790,02	56,939
790,19	53,499
790,37	55,989
790,54	54,485
790,72	59,132
790,89	58,576
791,07	55,263
791,24	49,849
791,42	54,787
791,59	56,824
791,77	54,706
791,94	50,439
792,12	52,064
792,29	55,085
792,47	53,319
792,64	57,037
792,81	56,716
792,99	52,717
793,16	55,555
793,34	57,479
793,51	53,692
793,69	56,026
793,86	55,146
794,04	54,314
794,21	58,335
794,39	52,728
794,56	53,834
794,73	56,746
794,91	56,627
795,08	51,253
795,26	56,241
795,43	55,492
795,61	56,045
795,78	56,610
795,95	53,352
796,13	54,531
796,30	58,012
796,48	55,463
796,65	56,419
796,83	57,770
797,00	58,593
797,17	57,254
797,35	54,037
797,52	54,696
797,70	60,265
797,87	57,451
798,04	55,454
798,22	53,846
798,39	57,768
798,57	54,772
798,74	55,248
798,91	53,118
799,09	53,684
799,26	56,943
799,44	55,233
799,61	55,228
799,78	55,035
799,96	58,062
800,13	53,294
800,31	56,276
800,48	55,493
800,65	60,769
800,83	53,844
801,00	56,601
801,17	56,146
801,35	59,833
801,52	53,738
801,70	56,249
801,87	56,617
802,04	62,105
802,22	50,808
802,39	51,493
802,56	62,316
802,74	59,569
802,91	54,448
803,08	54,000
803,26	59,776
803,43	59,966
803,61	55,463
803,78	54,315
803,95	59,392
804,13	58,237
804,30	55,845
804,47	58,074
804,65	60,297
804,82	56,747
804,99	56,783
805,17	54,383
805,34	64,784
805,51	60,820
805,69	55,845
805,86	53,558
806,03	62,490
806,21	62,240
806,38	56,288
806,55	57,381
806,72	62,045
806,90	59,887
807,07	55,821
807,24	53,574
807,42	56,071
807,59	58,497
807,76	52,352
807,94	54,546
808,11	59,632
808,28	61,395
808,45	55,809
808,63	58,306
808,80	62,445
808,97	55,498
809,15	53,654
809,32	60,518
809,49	55,480
809,67	57,517
809,84	55,135
810,01	60,987
810,18	70,849
810,36	63,975
810,53	57,481
810,70	55,898
810,87	58,320
811,05	59,638
811,22	58,363
811,39	54,115
811,57	62,184
811,74	59,605
811,91	53,187
812,08	56,972
812,26	59,952
812,43	52,117
812,60	58,497
812,77	59,087
812,95	61,992
813,12	60,523
813,29	53,661
813,46	57,949
813,64	60,906
813,81	62,743
813,98	57,094
814,15	59,522
814,32	60,225
814,50	60,336
814,67	59,008
814,84	56,967
815,01	57,538
815,19	53,738
815,36	51,400
815,53	57,283
815,70	57,917
815,87	60,869
816,05	49,085
816,22	58,847
816,39	61,714
816,56	60,188
816,74	57,770
816,91	55,972
817,08	67,586
817,25	60,172
817,42	53,930
817,60	58,729
817,77	59,341
817,94	62,614
818,11	56,267
818,28	61,570
818,45	60,182
818,63	59,102
818,80	55,474
818,97	56,906
819,14	68,168
819,31	69,954
819,49	65,535
819,66	57,317
819,83	61,197
820,00	62,708
820,17	54,558
820,34	60,326
820,52	63,119
820,69	63,298
820,86	54,041
821,03	56,506
821,20	67,401
821,37	65,866
821,55	52,554
821,72	59,003
821,89	65,356
822,06	66,076
822,23	54,600
822,40	54,667
822,57	66,880
822,75	64,761
822,92	55,147
823,09	57,088
823,26	62,712
823,43	66,203
823,60	53,853
823,77	58,423
823,94	73,147
824,12	64,986
824,29	55,629
824,46	55,675
824,63	66,809
824,80	68,003
824,97	54,752
825,14	57,615
825,31	64,364
825,49	56,795
825,66	52,603
825,83	53,947
826,00	64,266
826,17	74,278
826,34	58,027
826,51	51,166
826,68	57,526
826,85	64,523
827,02	58,087
827,20	50,869
827,37	58,989
827,54	66,427
827,71	62,341
827,88	60,327
828,05	67,446
828,22	63,582
828,39	65,987
828,56	61,262
828,73	61,666
828,90	59,104
829,07	61,651
829,25	55,211
829,42	62,822
829,59	61,664
829,76	55,674
829,93	50,238
830,10	67,690
830,27	61,965
830,44	60,484
830,61	59,201
830,78	56,639
830,95	67,663
831,12	57,601
831,29	58,112
831,46	65,864
831,63	58,084
831,80	53,598
831,97	59,158
832,14	74,389
832,31	76,880
832,48	62,184
832,65	68,761
832,83	57,708
833,00	64,922
833,17	58,231
833,34	65,880
833,51	72,002
833,68	74,943
833,85	63,976
834,02	57,077
834,19	66,430
834,36	71,271
834,53	57,386
834,70	60,813
834,87	74,352
835,04	66,115
835,21	60,724
835,38	54,880
835,55	58,936
835,72	83,012
835,89	60,166
836,06	64,997
836,23	81,541
836,40	62,141
836,57	58,816
836,74	64,269
836,91	69,706
837,08	76,165
837,25	64,233
837,42	53,094
837,59	62,386
837,76	72,157
837,93	57,875
838,09	56,585
838,26	67,258
838,43	77,837
838,60	58,036
838,77	53,256
838,94	68,674
839,11	61,431
839,28	61,311
839,45	56,372
839,62	60,606
839,79	66,339
839,96	65,588
840,13	71,209
840,30	51,252
840,47	58,420
840,64	60,572
840,81	67,439
840,98	66,921
841,15	72,534
841,32	55,986
841,48	72,892
841,65	68,938
841,82	65,893
841,99	64,466
842,16	54,091
842,33	69,453
842,50	64,763
842,67	69,901
842,84	75,346
843,01	73,520
843,18	67,375
843,35	55,991
843,52	58,293
843,68	69,158
843,85	76,477
844,02	60,118
844,19	56,297
844,36	69,961
844,53	75,752
844,70	59,131
844,87	74,458
845,04	81,011
845,21	57,647
845,37	78,918
845,54	56,484
845,71	79,292
845,88	89,777
846,05	53,047
846,22	61,300
846,39	65,808
846,56	86,531
846,72	56,818
846,89	70,456
847,06	78,666
847,23	78,765
847,40	61,940
847,57	58,996
847,74	65,028
847,90	80,213
848,07	57,449
848,24	65,501
848,41	71,554
848,58	96,890
848,75	62,025
848,92	52,787
849,08	72,797
849,25	68,435
849,42	61,263
849,59	72,662
849,76	68,516
849,93	70,746
850,09	66,828
850,26	63,045
850,43	80,500
850,60	59,608
850,77	61,596
850,94	68,299
851,10	67,323
851,27	67,968
851,44	62,577
851,61	71,087
851,78	75,653
851,95	83,032
852,11	59,802
852,28	57,315
852,45	74,929
852,62	77,754
852,79	62,842
852,95	60,164
853,12	83,419
853,29	70,376
853,46	56,454
853,63	79,016
853,79	66,258
853,96	64,784
854,13	77,939
854,30	68,816
854,46	99,691
854,63	67,583
854,80	59,625
854,97	65,140
855,14	82,658
855,30	75,364
855,47	65,433
855,64	69,490
855,81	71,092
855,97	86,835
856,14	69,793
856,31	66,340
856,48	78,430
856,65	94,259
856,81	62,639
856,98	59,457
857,15	58,575
857,32	76,859
857,48	65,836
857,65	77,427
857,82	93,804
857,99	80,088
858,15	68,813
858,32	68,624
858,49	76,052
858,65	104,120
858,82	70,460
858,99	68,456
859,16	77,048
859,32	98,718
859,49	64,075
859,66	69,316
859,83	72,136
859,99	69,231
860,16	73,294
860,33	56,426
860,49	90,484
860,66	85,534
860,83	69,258
861,00	64,037
861,16	92,033
861,33	82,427
861,50	56,465
861,66	75,706
861,83	109,853
862,00	79,709
862,16	64,736
862,33	67,750
862,50	109,398
862,67	89,105
862,83	67,587
863,00	84,697
863,17	118,370
863,33	73,148
863,50	45,612
863,67	78,923
863,83	79,987
864,00	102,421
864,17	57,213
864,33	71,558
864,50	97,597
864,67	96,498
864,83	74,337
865,00	55,642
865,17	60,782
865,33	108,990
865,50	54,407
865,67	57,443
865,83	92,186
866,00	113,433
866,17	83,662
866,33	81,474
866,50	99,874
866,66	103,406
866,83	91,818
867,00	89,495
867,16	120,258
867,33	107,411
867,50	51,208
867,66	55,734
867,83	114,211
868,00	92,024
868,16	62,454
868,33	61,664
868,49	80,833
868,66	84,575
868,83	64,753
868,99	86,945
869,16	129,610
869,32	131,732
869,49	73,066
869,66	72,276
869,82	104,356
869,99	115,069
870,15	59,928
870,32	96,102
870,49	110,708
870,65	136,347
870,82	91,082
870,98	73,482
871,15	137,889
871,32	110,683
871,48	80,852
871,65	61,618
871,81	99,406
871,98	41,933
872,15	52,590
872,31	46,888
872,48	155,476
872,64	91,426
872,81	46,220
872,97	63,485
873,14	118,034
873,31	121,997
873,47	90,490
873,64	111,766
873,80	134,473
873,97	154,151
874,13	69,978
874,30	83,130
874,46	118,978
874,63	91,629
874,80	77,436
874,96	46,042
875,13	158,405
875,29	76,252
875,46	135,612
875,62	42,376
875,79	140,108
875,95	126,218
876,12	71,436
876,28	37,339
876,45	148,035
876,61	95,494
876,78	62,259
876,94	72,177
877,11	157,401
877,27	155,016
877,44	91,572
877,60	77,092
877,77	190,016
877,94	124,345
878,10	77,517
878,27	100,370
878,43	161,915
878,60	69,580
878,76	89,126
878,93	49,748
879,09	139,891
879,26	147,555
879,42	101,725
879,58	55,802
879,75	177,730
879,91	158,459
880,08	24,738
880,24	65,361
880,41	110,376
880,57	118,472
880,74	95,168
880,90	84,864
881,07	127,862
881,23	213,445
881,40	84,810
881,56	97,195
881,73	136,244
881,89	134,568
882,06	23,699
882,22	267,470
882,38	206,965
882,55	257,051
882,71	72,303
882,88	78,554
883,04	369,337
883,21	281,555
883,37	105,383
883,54	97,834
883,70	357,361
883,86	131,493
884,03	93,735
884,19	65,850
884,36	262,248
884,52	275,912
884,69	104,233
884,85	82,433
885,01	290,921
885,18	189,586
885,34	120,767
885,51	-4,118
885,67	97,588
>>>>> Data<<<<< Espectral Procesado Extremo
