Fichero De Datos De SpectraSuite
++++++++++++++++++++++++++++++++++++
Fecha: Wed Apr 22 13:07:42 CEST 2009
Usuario: evoflor
Presente Oscuro Del Espectro: Sí
La Referencia de Presente Del Espectro De: Sí
Muestreados de los componentes de Número de espectros: 1
Espectrómetros: USB4F02353
Tiempo de integración (usec): 500000 (USB4F02353)
Promedio de Espectros Hechos un: 5 (USB4F02353)
El Alisar Del Furgón: 0 (USB4F02353)
Párrafo de de Corregir del la del del de Eléctrica del obscuridad: Sí (USB4F02353)
Estrobo/Lámpara Permitido: No (USB4F02353)
Correct for Detector Non-linearity: No (USB4F02353)
Párrafo de de Corregir del la del del de Externa del luz: No (USB4F02353)
Procesado del espectro de Número de pixeles en: 3648
>>>>> Comienza Data<<<<< Espectral Procesado Del EL
177,79	396,759
178,00	396,759
178,22	396,759
178,44	1847,308
178,66	-419,642
178,88	547,573
179,09	-154,021
179,31	441,730
179,53	803,080
179,75	287,937
179,96	746,509
180,18	-551,677
180,40	625,462
180,62	220,146
180,83	123,533
181,05	-1901,159
181,27	-163095,000
181,49	-29,772
181,70	419,596
181,92	1124,848
182,14	710,828
182,36	35,765
182,58	-226,950
182,79	1258,460
183,01	-68,326
183,23	123,138
183,45	2,169
183,66	74,801
183,88	535,853
184,10	-4503,545
184,32	127,463
184,53	343,634
184,75	-270,832
184,97	60,573
185,18	-228,750
185,40	-624,014
185,62	206,832
185,84	-125,338
186,05	156,272
186,27	-204,433
186,49	5753,654
186,71	54,682
186,92	131,917
187,14	-314,114
187,36	120,119
187,58	136,893
187,79	-128,868
188,01	537,241
188,23	-266,463
188,45	161,744
188,66	426,763
188,88	-3423,545
189,10	-2656,950
189,31	-15,691
189,53	97,254
189,75	403,398
189,97	232,673
190,18	-227,060
190,40	800,559
190,62	-82,103
190,83	-254,270
191,05	272,170
191,27	316,843
191,49	497,265
191,70	-481,226
191,92	-505,042
192,14	-39,338
192,35	707,149
192,57	4299,857
192,79	-34,272
193,01	204,938
193,22	156,983
193,44	-312,108
193,66	121,942
193,87	71,724
194,09	-89,331
194,31	238,811
194,53	706,259
194,74	100,476
194,96	9,457
195,18	170,394
195,39	-430,330
195,61	-167,794
195,83	-350,641
196,04	173,299
196,26	-50,729
196,48	56,989
196,70	388,658
196,91	2,066
197,13	164,544
197,35	-1,189
197,56	839,303
197,78	1902,201
198,00	712,552
198,21	446,578
198,43	-1366,831
198,65	217,790
198,86	75,162
199,08	177,689
199,30	228,128
199,51	-718,876
199,73	301,990
199,95	526,225
200,16	869,596
200,38	162,699
200,60	169,750
200,81	432,109
201,03	428,519
201,25	-1909,950
201,46	159,117
201,68	74,830
201,90	3808,977
202,11	-821,737
202,33	126,382
202,55	553,688
202,76	-163,953
202,98	116,707
203,20	-61,514
203,41	-645,237
203,63	238,332
203,85	-133395,000
204,06	29,687
204,28	-152,277
204,50	172,288
204,71	424,903
204,93	-171,240
205,15	146,973
205,36	-315,287
205,58	161,027
205,80	-256,342
206,01	61,286
206,23	142,700
206,45	293,571
206,66	159,551
206,88	14,798
207,10	407,489
207,31	411,517
207,53	221,700
207,75	115,425
207,96	928,321
208,18	-368,933
208,39	76,600
208,61	2602,714
208,83	-608,148
209,04	430,182
209,26	-291,221
209,48	318,877
209,69	386,444
209,91	775,997
210,13	92,880
210,34	30,981
210,56	220,355
210,77	-2233,819
210,99	84,206
211,21	1493,824
211,42	-217,073
211,64	-44,742
211,86	274,296
212,07	330,629
212,29	247,514
212,50	156,879
212,72	204,981
212,94	193,253
213,15	154,093
213,37	148,716
213,58	15,532
213,80	-2996,250
214,02	17217,353
214,23	437,217
214,45	611,459
214,67	-1604,817
214,88	-254,346
215,10	-372,702
215,31	-144,989
215,53	20,898
215,75	138,078
215,96	2103,075
216,18	28,099
216,39	289,423
216,61	475,972
216,83	406,674
217,04	1953,876
217,26	65,637
217,47	233,436
217,69	403,665
217,91	-9,781
218,12	-61395,000
218,34	204,581
218,55	735,796
218,77	137,729
218,99	167,029
219,20	-233,683
219,42	315,846
219,63	-184,638
219,85	-118,856
220,06	246,519
220,28	206,310
220,50	24,140
220,71	69,168
220,93	3756,509
221,14	-2017,950
221,36	-146,644
221,58	-47,809
221,79	268,511
222,01	1250,819
222,22	522,336
222,44	406,685
222,65	130,448
222,87	851,014
223,09	91,502
223,30	68,979
223,52	120,483
223,73	202,978
223,95	64,923
224,16	215,660
224,38	531,505
224,60	91,831
224,81	251,032
225,03	152,858
225,24	207,167
225,46	143,846
225,67	42,842
225,89	82,716
226,10	667,455
226,32	-113,640
226,54	18,557
226,75	-25,579
226,97	184,345
227,18	163,972
227,40	48,462
227,61	85,255
227,83	37,722
228,04	168,212
228,26	53,011
228,47	83,432
228,69	308,216
228,91	203,967
229,12	94,401
229,34	50,388
229,55	93,923
229,77	24,139
229,98	27,304
230,20	67,984
230,41	45,397
230,63	151,782
230,84	-11,894
231,06	66,382
231,27	15,527
231,49	73,098
231,71	52,377
231,92	36,501
232,14	13,739
232,35	123,372
232,57	49,229
232,78	36,495
233,00	101,563
233,21	77,550
233,43	3,248
233,64	32,731
233,86	56,126
234,07	49,667
234,29	15,030
234,50	41,183
234,72	47,398
234,93	33,728
235,15	30,843
235,36	33,983
235,58	57,785
235,79	48,758
236,01	18,463
236,22	20,166
236,44	51,572
236,65	28,729
236,87	17,148
237,08	5,460
237,30	-6,158
237,51	35,176
237,73	-1,200
237,94	17,922
238,16	40,672
238,37	15,305
238,59	20,866
238,80	19,418
239,02	6,040
239,23	21,562
239,45	5,644
239,66	25,719
239,88	38,583
240,09	19,758
240,31	5,253
240,52	7,972
240,74	18,080
240,95	15,819
241,17	6,029
241,38	5,518
241,60	7,611
241,81	36,975
242,03	12,162
242,24	4,285
242,46	17,341
242,67	9,515
242,89	10,737
243,10	14,966
243,32	16,395
243,53	24,003
243,75	12,067
243,96	8,709
244,18	23,962
244,39	16,672
244,60	11,501
244,82	5,343
245,03	24,512
245,25	20,205
245,46	29,175
245,68	4,313
245,89	29,023
246,11	18,753
246,32	12,872
246,54	8,862
246,75	16,609
246,97	12,879
247,18	23,064
247,39	0,393
247,61	16,620
247,82	17,753
248,04	6,333
248,25	9,257
248,47	22,191
248,68	10,079
248,90	4,410
249,11	10,677
249,33	24,044
249,54	5,816
249,75	8,934
249,97	3,517
250,18	18,070
250,40	12,194
250,61	-4,100
250,83	2,534
251,04	6,007
251,25	10,318
251,47	4,840
251,68	14,411
251,90	12,109
252,11	17,073
252,33	6,032
252,54	13,534
252,76	8,628
252,97	2,820
253,18	3,315
253,40	2,401
253,61	0,105
253,83	13,329
254,04	6,650
254,25	8,016
254,47	1,832
254,68	10,646
254,90	6,801
255,11	10,694
255,33	9,873
255,54	6,158
255,75	8,824
255,97	8,115
256,18	9,609
256,40	12,666
256,61	8,937
256,82	5,510
257,04	8,823
257,25	4,144
257,47	4,659
257,68	6,696
257,89	12,385
258,11	13,947
258,32	4,023
258,54	6,670
258,75	12,394
258,96	16,594
259,18	8,011
259,39	5,422
259,61	15,918
259,82	7,641
260,03	11,503
260,25	11,098
260,46	5,005
260,68	6,139
260,89	2,449
261,10	5,799
261,32	6,743
261,53	6,215
261,75	4,244
261,96	2,462
262,17	12,863
262,39	12,283
262,60	5,094
262,81	-0,074
263,03	12,315
263,24	9,381
263,46	5,790
263,67	3,987
263,88	5,976
264,10	7,707
264,31	4,903
264,52	7,503
264,74	10,051
264,95	6,534
265,17	6,528
265,38	7,921
265,59	8,866
265,81	10,973
266,02	2,159
266,23	2,694
266,45	15,539
266,66	9,294
266,87	9,580
267,09	7,567
267,30	10,299
267,52	12,161
267,73	5,490
267,94	6,774
268,16	9,225
268,37	7,005
268,58	9,841
268,80	5,170
269,01	2,839
269,22	8,311
269,44	9,172
269,65	5,143
269,86	8,145
270,08	10,652
270,29	2,052
270,50	5,993
270,72	11,554
270,93	4,205
271,14	1,725
271,36	5,951
271,57	12,490
271,78	8,647
272,00	8,661
272,21	8,296
272,42	6,980
272,64	12,016
272,85	6,057
273,06	4,961
273,28	8,992
273,49	8,620
273,70	12,504
273,92	7,460
274,13	5,231
274,34	4,505
274,56	12,409
274,77	4,921
274,98	8,386
275,20	10,454
275,41	9,430
275,62	7,481
275,84	6,078
276,05	14,599
276,26	2,758
276,47	-1,690
276,69	12,540
276,90	8,027
277,11	8,912
277,33	5,003
277,54	11,564
277,75	10,417
277,97	4,605
278,18	4,859
278,39	10,865
278,61	7,201
278,82	5,872
279,03	6,529
279,24	8,449
279,46	6,191
279,67	9,981
279,88	6,636
280,10	13,255
280,31	2,565
280,52	8,888
280,73	6,599
280,95	7,715
281,16	11,729
281,37	5,243
281,59	10,415
281,80	13,492
282,01	7,141
282,22	3,901
282,44	3,393
282,65	14,252
282,86	10,454
283,08	4,023
283,29	5,278
283,50	8,044
283,71	7,586
283,93	8,249
284,14	10,157
284,35	6,405
284,56	10,178
284,78	3,799
284,99	9,753
285,20	11,538
285,42	7,239
285,63	5,427
285,84	1,761
286,05	4,388
286,27	6,187
286,48	5,688
286,69	6,116
286,90	8,170
287,12	8,464
287,33	2,213
287,54	2,031
287,75	8,950
287,97	6,734
288,18	4,878
288,39	4,377
288,60	7,335
288,82	2,600
289,03	4,613
289,24	5,130
289,45	10,358
289,67	5,980
289,88	4,096
290,09	8,141
290,30	6,425
290,52	8,484
290,73	2,644
290,94	0,418
291,15	7,143
291,37	7,676
291,58	5,176
291,79	5,317
292,00	9,518
292,21	6,816
292,43	3,708
292,64	2,287
292,85	5,442
293,06	10,850
293,28	5,500
293,49	1,352
293,70	12,764
293,91	6,286
294,12	6,385
294,34	5,283
294,55	7,941
294,76	6,981
294,97	8,560
295,19	2,904
295,40	7,012
295,61	6,874
295,82	1,552
296,03	7,557
296,25	5,468
296,46	5,706
296,67	2,953
296,88	1,448
297,09	7,647
297,31	5,746
297,52	6,191
297,73	1,061
297,94	7,513
298,15	8,977
298,37	5,124
298,58	6,741
298,79	8,540
299,00	5,451
299,21	4,192
299,43	3,628
299,64	11,670
299,85	8,161
300,06	3,095
300,27	3,402
300,49	10,569
300,70	6,296
300,91	6,868
301,12	4,231
301,33	11,703
301,54	6,086
301,76	7,767
301,97	4,627
302,18	8,215
302,39	7,120
302,60	14,630
302,82	6,440
303,03	11,593
303,24	7,008
303,45	6,231
303,66	5,244
303,87	4,831
304,09	8,090
304,30	5,352
304,51	3,991
304,72	5,992
304,93	9,166
305,14	5,630
305,36	0,030
305,57	2,990
305,78	7,966
305,99	5,199
306,20	6,323
306,41	5,204
306,62	5,627
306,84	3,986
307,05	3,432
307,26	7,770
307,47	10,735
307,68	5,958
307,89	4,303
308,11	7,883
308,32	5,206
308,53	6,664
308,74	1,606
308,95	5,998
309,16	8,423
309,37	11,319
309,59	3,999
309,80	8,863
310,01	8,061
310,22	8,269
310,43	6,108
310,64	6,690
310,85	6,429
311,06	3,171
311,28	5,119
311,49	6,251
311,70	10,015
311,91	1,520
312,12	2,469
312,33	7,152
312,54	8,237
312,75	7,078
312,97	3,171
313,18	7,776
313,39	6,578
313,60	5,162
313,81	5,095
314,02	8,893
314,23	9,802
314,44	3,114
314,65	6,363
314,87	3,566
315,08	4,686
315,29	6,568
315,50	8,164
315,71	9,888
315,92	8,475
316,13	5,036
316,34	5,848
316,55	6,897
316,77	1,141
316,98	5,274
317,19	3,002
317,40	7,568
317,61	10,718
317,82	2,258
318,03	3,928
318,24	5,366
318,45	10,052
318,66	7,320
318,87	2,351
319,09	6,501
319,30	7,349
319,51	7,649
319,72	6,073
319,93	9,956
320,14	9,441
320,35	9,875
320,56	2,364
320,77	3,764
320,98	11,759
321,19	3,737
321,40	4,508
321,62	7,393
321,83	6,115
322,04	7,776
322,25	4,784
322,46	10,843
322,67	8,328
322,88	6,883
323,09	3,130
323,30	8,639
323,51	10,622
323,72	6,761
323,93	4,724
324,14	5,281
324,35	3,812
324,56	2,407
324,77	4,899
324,99	6,716
325,20	2,915
325,41	5,226
325,62	6,320
325,83	3,467
326,04	4,024
326,25	7,830
326,46	2,002
326,67	6,030
326,88	6,744
327,09	3,838
327,30	3,116
327,51	7,426
327,72	9,061
327,93	7,771
328,14	2,090
328,35	5,045
328,56	7,810
328,77	5,339
328,98	7,254
329,19	7,121
329,40	7,521
329,61	5,350
329,82	0,935
330,04	5,488
330,25	4,710
330,46	5,866
330,67	2,231
330,88	6,319
331,09	7,843
331,30	5,072
331,51	5,909
331,72	7,339
331,93	8,555
332,14	6,717
332,35	7,203
332,56	8,124
332,77	11,024
332,98	0,846
333,19	5,446
333,40	7,304
333,61	5,083
333,82	8,715
334,03	7,612
334,24	7,414
334,45	4,805
334,66	6,295
334,87	6,157
335,08	4,007
335,29	3,345
335,50	2,175
335,71	1,972
335,92	7,413
336,13	7,914
336,34	3,872
336,55	6,501
336,76	9,027
336,97	4,876
337,18	3,565
337,39	5,283
337,60	5,736
337,81	9,929
338,02	6,195
338,23	5,745
338,44	5,809
338,65	6,959
338,86	6,707
339,07	4,983
339,28	9,042
339,49	4,367
339,70	3,028
339,91	7,260
340,11	11,583
340,32	5,108
340,53	3,650
340,74	1,102
340,95	5,143
341,16	5,424
341,37	4,624
341,58	4,158
341,79	1,929
342,00	3,969
342,21	5,251
342,42	5,557
342,63	7,799
342,84	3,290
343,05	7,408
343,26	9,238
343,47	7,770
343,68	4,124
343,89	5,763
344,10	6,067
344,31	8,406
344,52	4,073
344,73	4,912
344,94	7,357
345,14	6,596
345,35	6,503
345,56	5,973
345,77	6,965
345,98	6,728
346,19	7,298
346,40	7,483
346,61	7,028
346,82	6,033
347,03	8,452
347,24	9,681
347,45	1,966
347,66	9,546
347,87	5,207
348,08	12,970
348,28	1,660
348,49	7,781
348,70	8,547
348,91	5,901
349,12	1,775
349,33	22,329
349,54	6,938
349,75	6,247
349,96	6,014
350,17	7,725
350,38	2,725
350,59	7,886
350,80	4,343
351,00	7,466
351,21	11,265
351,42	5,006
351,63	2,316
351,84	8,575
352,05	8,375
352,26	6,311
352,47	4,298
352,68	8,352
352,89	9,172
353,09	7,197
353,30	3,257
353,51	6,238
353,72	9,511
353,93	8,072
354,14	6,109
354,35	5,415
354,56	7,739
354,77	4,816
354,98	1,442
355,18	6,824
355,39	11,965
355,60	4,337
355,81	4,436
356,02	7,407
356,23	7,423
356,44	5,794
356,65	8,051
356,85	12,551
357,06	8,970
357,27	7,598
357,48	3,995
357,69	8,731
357,90	7,137
358,11	2,357
358,32	3,616
358,52	10,192
358,73	7,156
358,94	6,530
359,15	6,324
359,36	9,233
359,57	4,922
359,78	7,615
359,98	2,979
360,19	2,808
360,40	5,882
360,61	7,911
360,82	5,025
361,03	12,895
361,24	6,484
361,44	2,517
361,65	6,153
361,86	2,739
362,07	7,262
362,28	4,919
362,49	2,714
362,70	6,375
362,90	9,004
363,11	3,151
363,32	4,506
363,53	7,133
363,74	11,235
363,95	8,382
364,15	5,074
364,36	11,725
364,57	6,658
364,78	4,821
364,99	3,112
365,20	7,859
365,40	9,286
365,61	4,026
365,82	6,713
366,03	9,385
366,24	7,901
366,45	2,095
366,65	4,859
366,86	4,027
367,07	8,014
367,28	5,234
367,49	6,271
367,69	9,395
367,90	7,095
368,11	5,277
368,32	5,671
368,53	9,208
368,73	8,215
368,94	5,137
369,15	7,842
369,36	9,228
369,57	7,763
369,78	7,125
369,98	5,944
370,19	11,434
370,40	4,757
370,61	7,061
370,82	3,563
371,02	9,050
371,23	10,925
371,44	7,046
371,65	6,844
371,85	9,926
372,06	7,101
372,27	5,272
372,48	7,100
372,69	6,732
372,89	8,544
373,10	6,682
373,31	6,739
373,52	8,280
373,73	11,806
373,93	7,521
374,14	4,235
374,35	7,760
374,56	7,278
374,76	9,373
374,97	4,514
375,18	8,147
375,39	6,381
375,60	8,831
375,80	5,169
376,01	6,199
376,22	10,685
376,43	4,922
376,63	3,656
376,84	4,477
377,05	5,720
377,26	4,772
377,46	5,613
377,67	4,144
377,88	6,236
378,09	8,596
378,29	4,332
378,50	5,612
378,71	5,436
378,92	5,680
379,12	5,869
379,33	5,348
379,54	4,677
379,75	7,880
379,95	6,344
380,16	6,284
380,37	11,183
380,58	7,750
380,78	7,855
380,99	3,498
381,20	6,773
381,41	6,748
381,61	6,400
381,82	9,539
382,03	4,878
382,24	6,191
382,44	7,799
382,65	7,511
382,86	8,891
383,06	8,393
383,27	6,932
383,48	6,484
383,69	9,236
383,89	6,230
384,10	5,827
384,31	7,771
384,51	9,922
384,72	9,379
384,93	4,512
385,14	6,568
385,34	5,589
385,55	3,935
385,76	4,114
385,96	11,589
386,17	7,532
386,38	10,737
386,59	6,878
386,79	4,566
387,00	11,369
387,21	10,021
387,41	5,615
387,62	5,135
387,83	13,330
388,03	7,164
388,24	0,207
388,45	6,611
388,66	9,591
388,86	6,719
389,07	4,982
389,28	11,755
389,48	6,028
389,69	3,929
389,90	6,300
390,10	6,882
390,31	11,831
390,52	0,538
390,72	3,629
390,93	7,167
391,14	5,685
391,34	4,331
391,55	12,310
391,76	12,292
391,96	7,551
392,17	6,689
392,38	10,874
392,58	8,931
392,79	9,408
393,00	3,746
393,20	5,952
393,41	6,455
393,62	9,441
393,82	4,388
394,03	6,850
394,24	5,205
394,44	10,896
394,65	7,470
394,86	6,485
395,06	8,690
395,27	3,677
395,48	5,235
395,68	6,498
395,89	8,394
396,10	11,805
396,30	5,644
396,51	3,370
396,72	14,915
396,92	5,034
397,13	7,572
397,34	2,939
397,54	7,946
397,75	5,961
397,95	4,864
398,16	8,311
398,37	5,240
398,57	6,884
398,78	10,706
398,99	8,794
399,19	11,053
399,40	10,992
399,60	5,042
399,81	9,270
400,02	8,768
400,22	10,728
400,43	5,917
400,64	7,731
400,84	4,454
401,05	12,767
401,25	10,579
401,46	10,181
401,67	12,101
401,87	6,944
402,08	4,877
402,29	5,457
402,49	12,904
402,70	16,792
402,90	6,867
403,11	7,570
403,32	9,694
403,52	7,593
403,73	10,884
403,93	11,383
404,14	14,889
404,35	8,855
404,55	6,377
404,76	5,594
404,96	8,774
405,17	12,196
405,38	14,065
405,58	9,575
405,79	14,659
405,99	13,245
406,20	8,526
406,40	7,246
406,61	13,632
406,82	11,664
407,02	12,837
407,23	11,447
407,43	11,291
407,64	10,573
407,85	10,295
408,05	4,890
408,26	19,594
408,46	17,535
408,67	6,483
408,87	12,838
409,08	10,716
409,29	15,536
409,49	14,384
409,70	15,676
409,90	15,055
410,11	14,477
410,31	14,318
410,52	9,949
410,72	11,148
410,93	16,905
411,14	12,035
411,34	10,836
411,55	16,238
411,75	16,523
411,96	13,856
412,16	16,245
412,37	14,419
412,57	15,945
412,78	15,989
412,99	13,167
413,19	15,456
413,40	15,224
413,60	11,070
413,81	9,708
414,01	15,008
414,22	13,288
414,42	13,431
414,63	11,220
414,83	19,917
415,04	22,897
415,24	14,796
415,45	14,315
415,65	19,378
415,86	18,113
416,07	13,850
416,27	16,615
416,48	19,674
416,68	21,483
416,89	10,456
417,09	13,505
417,30	20,517
417,50	19,517
417,71	19,352
417,91	17,151
418,12	14,618
418,32	13,989
418,53	18,505
418,73	17,862
418,94	17,275
419,14	18,551
419,35	14,512
419,55	17,664
419,76	21,668
419,96	14,216
420,17	13,293
420,37	18,867
420,58	24,085
420,78	21,180
420,99	18,361
421,19	22,757
421,40	22,013
421,60	22,814
421,81	18,168
422,01	19,137
422,22	20,044
422,42	21,839
422,63	19,150
422,83	16,012
423,04	24,664
423,24	27,275
423,45	17,110
423,65	23,568
423,86	24,195
424,06	23,139
424,27	19,062
424,47	17,570
424,67	17,937
424,88	24,837
425,08	20,693
425,29	26,526
425,49	18,747
425,70	15,910
425,90	21,383
426,11	19,658
426,31	18,964
426,52	23,193
426,72	19,373
426,93	19,427
427,13	26,089
427,33	22,285
427,54	24,353
427,74	25,633
427,95	26,488
428,15	17,248
428,36	21,285
428,56	22,004
428,77	24,196
428,97	21,603
429,18	22,976
429,38	23,214
429,58	27,125
429,79	22,765
429,99	17,948
430,20	16,203
430,40	28,497
430,61	19,340
430,81	18,262
431,01	24,794
431,22	26,925
431,42	30,073
431,63	21,091
431,83	20,363
432,04	22,871
432,24	28,063
432,44	18,920
432,65	22,936
432,85	19,082
433,06	23,022
433,26	21,158
433,47	18,378
433,67	23,961
433,87	23,718
434,08	17,160
434,28	19,779
434,49	19,801
434,69	25,317
434,89	20,467
435,10	22,866
435,30	27,133
435,51	19,442
435,71	20,883
435,91	22,186
436,12	21,984
436,32	23,813
436,53	25,984
436,73	20,768
436,93	22,528
437,14	24,257
437,34	23,312
437,55	20,767
437,75	23,912
437,95	30,653
438,16	20,058
438,36	20,463
438,57	24,171
438,77	20,085
438,97	22,994
439,18	25,205
439,38	24,380
439,58	18,962
439,79	21,821
439,99	18,781
440,20	30,218
440,40	27,801
440,60	19,575
440,81	24,375
441,01	27,745
441,21	27,515
441,42	26,119
441,62	24,805
441,83	23,793
442,03	23,640
442,23	27,947
442,44	22,880
442,64	26,257
442,84	20,601
443,05	20,582
443,25	19,652
443,45	24,529
443,66	24,284
443,86	18,987
444,06	19,716
444,27	20,328
444,47	26,583
444,67	20,916
444,88	26,151
445,08	25,298
445,28	23,711
445,49	20,420
445,69	23,499
445,90	25,922
446,10	27,967
446,30	21,454
446,51	18,365
446,71	29,513
446,91	27,312
447,12	30,333
447,32	23,621
447,52	22,449
447,72	25,917
447,93	21,065
448,13	19,247
448,33	30,586
448,54	32,363
448,74	20,487
448,94	23,568
449,15	30,945
449,35	28,241
449,55	26,372
449,76	28,880
449,96	25,055
450,16	27,866
450,37	18,663
450,57	23,832
450,77	19,199
450,98	29,525
451,18	24,633
451,38	23,324
451,58	21,282
451,79	24,564
451,99	27,650
452,19	21,825
452,40	27,870
452,60	20,987
452,80	21,655
453,00	26,924
453,21	24,522
453,41	27,108
453,61	23,828
453,82	28,306
454,02	20,777
454,22	31,063
454,42	25,068
454,63	23,313
454,83	26,863
455,03	26,360
455,24	26,875
455,44	22,384
455,64	22,439
455,84	22,133
456,05	21,579
456,25	23,112
456,45	25,000
456,65	22,228
456,86	25,733
457,06	26,269
457,26	30,466
457,47	31,959
457,67	24,280
457,87	19,182
458,07	22,737
458,28	27,468
458,48	25,774
458,68	22,550
458,88	30,604
459,09	27,619
459,29	26,256
459,49	23,223
459,69	29,137
459,90	28,117
460,10	21,400
460,30	23,442
460,50	22,575
460,71	27,278
460,91	18,985
461,11	23,655
461,31	23,506
461,52	31,756
461,72	21,379
461,92	27,323
462,12	30,644
462,32	15,669
462,53	22,236
462,73	18,518
462,93	27,584
463,13	25,019
463,34	22,819
463,54	25,230
463,74	23,629
463,94	23,104
464,14	24,341
464,35	22,631
464,55	30,967
464,75	23,767
464,95	25,954
465,16	18,593
465,36	29,375
465,56	24,639
465,76	22,164
465,96	19,888
466,17	21,065
466,37	21,929
466,57	26,359
466,77	23,371
466,97	19,547
467,18	27,902
467,38	24,990
467,58	26,352
467,78	28,425
467,98	25,910
468,19	22,447
468,39	23,940
468,59	23,663
468,79	23,962
468,99	19,979
469,19	18,432
469,40	26,585
469,60	23,576
469,80	21,298
470,00	27,619
470,20	26,124
470,41	21,267
470,61	27,918
470,81	27,208
471,01	19,034
471,21	24,494
471,41	20,940
471,62	22,374
471,82	19,406
472,02	18,592
472,22	20,864
472,42	19,693
472,62	23,240
472,83	21,947
473,03	23,510
473,23	23,409
473,43	26,731
473,63	25,255
473,83	23,600
474,03	19,615
474,24	27,730
474,44	19,476
474,64	23,493
474,84	18,120
475,04	23,785
475,24	24,632
475,45	20,477
475,65	21,733
475,85	25,950
476,05	20,157
476,25	20,817
476,45	24,133
476,65	29,326
476,85	20,235
477,06	21,134
477,26	19,834
477,46	23,952
477,66	22,337
477,86	21,876
478,06	20,305
478,26	30,061
478,46	20,013
478,67	23,080
478,87	20,554
479,07	21,989
479,27	27,937
479,47	22,204
479,67	15,260
479,87	17,284
480,07	25,316
480,28	20,770
480,48	18,186
480,68	24,332
480,88	30,119
481,08	25,006
481,28	23,715
481,48	23,261
481,68	22,829
481,88	20,209
482,08	21,386
482,29	26,576
482,49	19,479
482,69	23,897
482,89	20,373
483,09	26,543
483,29	19,712
483,49	20,590
483,69	23,939
483,89	20,177
484,09	19,035
484,29	17,544
484,50	20,727
484,70	23,012
484,90	20,215
485,10	17,052
485,30	22,009
485,50	24,050
485,70	19,771
485,90	19,398
486,10	15,483
486,30	20,398
486,50	18,591
486,70	20,124
486,90	18,119
487,10	23,340
487,30	20,445
487,51	18,915
487,71	17,383
487,91	17,857
488,11	21,717
488,31	16,011
488,51	21,721
488,71	18,809
488,91	21,323
489,11	17,010
489,31	18,208
489,51	21,685
489,71	19,524
489,91	19,784
490,11	16,788
490,31	20,709
490,51	19,196
490,71	20,244
490,91	17,949
491,11	19,470
491,31	19,684
491,51	15,562
491,72	18,122
491,92	20,514
492,12	24,259
492,32	22,604
492,52	21,434
492,72	20,965
492,92	21,735
493,12	19,396
493,32	18,222
493,52	17,822
493,72	17,944
493,92	19,996
494,12	18,688
494,32	21,146
494,52	18,219
494,72	16,771
494,92	18,417
495,12	20,466
495,32	23,009
495,52	16,856
495,72	18,526
495,92	22,607
496,12	23,551
496,32	16,877
496,52	18,177
496,72	20,446
496,92	19,367
497,12	18,127
497,32	18,198
497,52	20,159
497,72	23,716
497,92	19,081
498,12	18,095
498,32	21,918
498,52	16,809
498,72	15,688
498,92	15,851
499,12	19,443
499,32	18,617
499,52	19,404
499,72	18,868
499,92	21,568
500,12	20,178
500,32	21,254
500,52	18,810
500,72	25,716
500,91	22,638
501,11	18,382
501,31	13,273
501,51	20,459
501,71	22,375
501,91	21,250
502,11	18,732
502,31	21,188
502,51	20,891
502,71	19,265
502,91	17,715
503,11	21,035
503,31	20,006
503,51	14,938
503,71	15,495
503,91	20,935
504,11	20,196
504,31	20,399
504,51	19,493
504,71	27,122
504,91	17,213
505,10	21,512
505,30	18,456
505,50	20,959
505,70	16,709
505,90	16,920
506,10	15,971
506,30	18,011
506,50	20,384
506,70	21,948
506,90	16,656
507,10	17,656
507,30	16,633
507,50	20,125
507,70	20,110
507,89	21,337
508,09	18,786
508,29	17,663
508,49	17,393
508,69	17,142
508,89	18,236
509,09	17,160
509,29	18,970
509,49	20,352
509,69	22,975
509,89	19,385
510,09	15,383
510,28	18,687
510,48	21,414
510,68	17,540
510,88	17,216
511,08	16,907
511,28	19,911
511,48	17,219
511,68	13,209
511,88	12,741
512,07	17,937
512,27	18,500
512,47	15,497
512,67	15,815
512,87	14,445
513,07	18,122
513,27	15,833
513,47	15,665
513,67	13,257
513,86	16,689
514,06	17,365
514,26	17,260
514,46	19,685
514,66	16,223
514,86	15,422
515,06	23,930
515,26	20,074
515,45	16,507
515,65	15,173
515,85	17,826
516,05	14,752
516,25	18,384
516,45	17,694
516,65	12,567
516,84	18,341
517,04	19,911
517,24	14,743
517,44	17,027
517,64	20,116
517,84	19,210
518,04	15,915
518,23	20,050
518,43	21,055
518,63	16,126
518,83	14,829
519,03	13,725
519,23	16,168
519,42	15,317
519,62	14,973
519,82	12,883
520,02	14,882
520,22	15,589
520,42	13,741
520,61	15,516
520,81	17,299
521,01	18,826
521,21	14,060
521,41	16,598
521,61	19,705
521,80	12,928
522,00	17,500
522,20	17,375
522,40	18,098
522,60	15,051
522,79	13,609
522,99	17,394
523,19	13,315
523,39	14,528
523,59	15,105
523,78	20,285
523,98	14,924
524,18	16,260
524,38	12,563
524,58	16,648
524,77	19,183
524,97	16,656
525,17	13,953
525,37	16,995
525,57	21,220
525,76	14,119
525,96	16,134
526,16	14,295
526,36	12,821
526,56	15,960
526,75	14,054
526,95	16,631
527,15	14,962
527,35	16,784
527,55	12,837
527,74	15,976
527,94	14,552
528,14	13,867
528,34	14,140
528,53	12,952
528,73	15,814
528,93	14,684
529,13	14,025
529,32	13,989
529,52	17,814
529,72	13,122
529,92	12,622
530,12	13,499
530,31	14,121
530,51	14,199
530,71	13,106
530,91	17,105
531,10	11,454
531,30	15,316
531,50	13,149
531,70	15,636
531,89	12,278
532,09	12,242
532,29	12,048
532,49	14,895
532,68	14,578
532,88	12,353
533,08	12,875
533,28	12,464
533,47	12,835
533,67	15,201
533,87	9,894
534,06	21,429
534,26	14,467
534,46	11,640
534,66	12,132
534,85	17,206
535,05	8,319
535,25	11,941
535,45	10,547
535,64	14,882
535,84	13,236
536,04	9,604
536,23	12,479
536,43	16,141
536,63	11,318
536,83	13,096
537,02	10,902
537,22	10,958
537,42	13,459
537,61	12,508
537,81	13,963
538,01	14,440
538,20	12,239
538,40	12,577
538,60	11,316
538,80	15,007
538,99	13,941
539,19	12,971
539,39	11,215
539,58	13,982
539,78	11,943
539,98	9,392
540,17	10,506
540,37	12,149
540,57	12,737
540,76	9,870
540,96	8,867
541,16	13,710
541,36	10,641
541,55	7,493
541,75	9,042
541,95	12,109
542,14	11,678
542,34	8,287
542,54	8,828
542,73	9,463
542,93	10,032
543,13	8,443
543,32	8,851
543,52	11,308
543,72	8,641
543,91	10,759
544,11	8,825
544,31	8,890
544,50	8,448
544,70	10,132
544,89	9,699
545,09	11,634
545,29	10,678
545,48	10,965
545,68	6,641
545,88	9,305
546,07	9,857
546,27	8,591
546,47	9,632
546,66	11,754
546,86	12,323
547,06	9,935
547,25	10,256
547,45	11,887
547,64	10,215
547,84	13,570
548,04	10,777
548,23	13,084
548,43	13,509
548,63	14,467
548,82	11,672
549,02	9,302
549,21	12,257
549,41	12,221
549,61	10,248
549,80	9,530
550,00	12,436
550,20	8,542
550,39	11,715
550,59	11,513
550,78	13,060
550,98	9,108
551,18	13,293
551,37	13,681
551,57	11,631
551,76	14,801
551,96	9,769
552,16	12,419
552,35	13,755
552,55	10,403
552,74	13,348
552,94	14,558
553,14	11,963
553,33	10,590
553,53	10,150
553,72	12,333
553,92	14,008
554,12	10,737
554,31	9,371
554,51	11,873
554,70	9,029
554,90	12,584
555,09	14,868
555,29	13,256
555,49	12,661
555,68	14,220
555,88	9,249
556,07	9,689
556,27	16,540
556,46	11,299
556,66	10,096
556,86	15,144
557,05	14,681
557,25	9,625
557,44	11,029
557,64	12,371
557,83	12,910
558,03	10,284
558,22	9,263
558,42	14,033
558,62	13,311
558,81	13,674
559,01	11,096
559,20	14,391
559,40	11,318
559,59	9,888
559,79	10,677
559,98	13,233
560,18	14,958
560,37	11,177
560,57	14,370
560,76	10,434
560,96	10,394
561,16	12,946
561,35	11,794
561,55	14,769
561,74	13,428
561,94	13,318
562,13	12,023
562,33	13,578
562,52	13,356
562,72	11,127
562,91	10,424
563,11	12,792
563,30	12,489
563,50	8,220
563,69	10,032
563,89	8,291
564,08	12,945
564,28	11,386
564,47	9,732
564,67	9,982
564,86	10,400
565,06	11,485
565,25	11,069
565,45	13,591
565,64	17,245
565,84	10,910
566,03	10,040
566,23	10,459
566,42	12,502
566,62	12,247
566,81	11,643
567,01	11,337
567,20	12,895
567,40	8,727
567,59	9,289
567,79	13,293
567,98	14,189
568,18	10,408
568,37	11,454
568,57	12,648
568,76	13,887
568,96	10,384
569,15	11,192
569,35	12,907
569,54	15,663
569,73	11,599
569,93	9,553
570,12	11,118
570,32	13,087
570,51	12,046
570,71	11,833
570,90	14,387
571,10	12,109
571,29	9,065
571,49	10,480
571,68	13,187
571,87	12,669
572,07	10,143
572,26	7,183
572,46	11,569
572,65	11,026
572,85	8,384
573,04	10,953
573,24	11,889
573,43	12,917
573,62	12,595
573,82	11,713
574,01	11,864
574,21	9,698
574,40	9,735
574,60	8,916
574,79	13,540
574,98	10,119
575,18	11,205
575,37	11,004
575,57	12,532
575,76	13,463
575,96	10,944
576,15	11,550
576,34	12,500
576,54	13,669
576,73	12,725
576,93	11,478
577,12	11,952
577,31	12,690
577,51	9,936
577,70	11,061
577,90	12,028
578,09	10,977
578,28	11,165
578,48	10,682
578,67	13,557
578,87	14,109
579,06	10,844
579,25	12,785
579,45	14,219
579,64	11,000
579,84	10,964
580,03	10,250
580,22	14,422
580,42	10,334
580,61	12,643
580,81	10,796
581,00	13,586
581,19	14,243
581,39	11,179
581,58	11,941
581,77	11,815
581,97	13,414
582,16	12,762
582,35	10,246
582,55	12,589
582,74	14,976
582,94	12,513
583,13	9,737
583,32	12,409
583,52	14,947
583,71	14,018
583,90	12,716
584,10	14,479
584,29	15,107
584,48	13,383
584,68	12,435
584,87	14,616
585,06	15,226
585,26	11,043
585,45	12,923
585,65	14,395
585,84	13,140
586,03	13,743
586,23	12,895
586,42	14,467
586,61	15,250
586,81	12,801
587,00	12,878
587,19	13,069
587,39	15,598
587,58	14,182
587,77	14,164
587,97	12,940
588,16	14,141
588,35	14,793
588,54	13,941
588,74	14,027
588,93	17,749
589,12	14,116
589,32	14,370
589,51	15,623
589,70	13,649
589,90	13,832
590,09	14,350
590,28	18,555
590,48	15,230
590,67	14,688
590,86	15,009
591,06	15,868
591,25	17,074
591,44	15,458
591,63	16,177
591,83	17,084
592,02	18,309
592,21	14,961
592,41	14,223
592,60	18,470
592,79	16,095
592,98	16,098
593,18	15,369
593,37	16,420
593,56	16,633
593,76	17,344
593,95	14,495
594,14	15,412
594,33	20,318
594,53	17,045
594,72	16,554
594,91	17,538
595,10	17,570
595,30	17,166
595,49	16,992
595,68	19,563
595,88	18,930
596,07	18,920
596,26	19,747
596,45	17,650
596,65	14,871
596,84	17,979
597,03	19,703
597,22	19,126
597,42	21,801
597,61	18,186
597,80	19,814
597,99	17,887
598,19	20,397
598,38	18,915
598,57	16,980
598,76	20,662
598,95	20,184
599,15	19,707
599,34	19,856
599,53	20,167
599,72	18,792
599,92	20,189
600,11	20,102
600,30	20,681
600,49	22,781
600,69	18,415
600,88	21,467
601,07	20,499
601,26	19,597
601,45	20,200
601,65	19,941
601,84	22,076
602,03	20,399
602,22	21,552
602,42	21,811
602,61	20,926
602,80	22,874
602,99	21,953
603,18	19,531
603,38	23,967
603,57	21,157
603,76	20,175
603,95	20,340
604,14	22,550
604,34	22,332
604,53	21,127
604,72	21,715
604,91	22,966
605,10	22,709
605,29	22,308
605,49	20,062
605,68	22,693
605,87	24,833
606,06	23,609
606,25	20,849
606,45	22,043
606,64	22,393
606,83	22,409
607,02	21,576
607,21	24,021
607,40	23,811
607,60	21,103
607,79	20,948
607,98	20,730
608,17	21,077
608,36	22,579
608,55	22,803
608,75	23,479
608,94	23,262
609,13	19,960
609,32	19,715
609,51	21,908
609,70	19,227
609,89	21,061
610,09	19,971
610,28	23,805
610,47	21,568
610,66	20,005
610,85	17,997
611,04	22,420
611,23	20,174
611,43	19,036
611,62	21,182
611,81	20,903
612,00	20,775
612,19	19,890
612,38	20,003
612,57	22,307
612,77	21,121
612,96	20,127
613,15	21,805
613,34	23,637
613,53	23,876
613,72	24,892
613,91	22,910
614,10	22,570
614,29	24,097
614,49	21,918
614,68	22,994
614,87	24,940
615,06	26,836
615,25	22,254
615,44	26,687
615,63	25,135
615,82	23,964
616,01	25,532
616,21	24,271
616,40	25,585
616,59	28,921
616,78	25,629
616,97	25,982
617,16	26,148
617,35	26,311
617,54	26,377
617,73	27,025
617,92	25,417
618,11	27,165
618,31	24,326
618,50	26,553
618,69	25,686
618,88	25,332
619,07	24,219
619,26	23,864
619,45	26,086
619,64	23,876
619,83	24,430
620,02	24,587
620,21	29,011
620,40	27,860
620,59	25,186
620,78	25,331
620,97	27,279
621,17	28,483
621,36	25,656
621,55	24,608
621,74	26,736
621,93	28,245
622,12	26,409
622,31	25,252
622,50	27,127
622,69	28,348
622,88	27,026
623,07	28,091
623,26	26,820
623,45	30,079
623,64	25,753
623,83	25,257
624,02	28,335
624,21	27,606
624,40	26,824
624,59	24,603
624,78	27,035
624,97	31,125
625,16	25,092
625,35	24,410
625,54	25,115
625,73	26,655
625,92	27,300
626,12	29,950
626,31	30,184
626,50	29,497
626,69	27,810
626,88	25,781
627,07	28,167
627,26	28,943
627,45	26,883
627,64	25,775
627,83	28,449
628,02	28,365
628,21	28,346
628,40	28,031
628,59	29,267
628,78	27,701
628,97	25,887
629,16	25,619
629,35	27,970
629,54	30,626
629,73	27,888
629,92	26,485
630,10	27,660
630,29	28,445
630,48	27,346
630,67	26,696
630,86	29,269
631,05	27,422
631,24	29,333
631,43	26,806
631,62	27,439
631,81	28,377
632,00	29,492
632,19	25,880
632,38	30,234
632,57	30,203
632,76	28,440
632,95	30,346
633,14	32,265
633,33	29,580
633,52	29,085
633,71	30,270
633,90	27,686
634,09	28,925
634,28	28,731
634,47	26,561
634,66	30,106
634,85	29,057
635,04	31,624
635,22	29,505
635,41	29,679
635,60	31,598
635,79	31,254
635,98	27,560
636,17	29,572
636,36	28,139
636,55	29,575
636,74	27,978
636,93	29,923
637,12	30,061
637,31	28,058
637,50	29,277
637,69	28,685
637,87	29,088
638,06	28,714
638,25	28,719
638,44	28,933
638,63	27,809
638,82	28,710
639,01	30,378
639,20	28,997
639,39	31,804
639,58	28,323
639,77	29,980
639,95	29,577
640,14	30,799
640,33	29,698
640,52	29,838
640,71	32,926
640,90	30,572
641,09	32,264
641,28	29,278
641,47	32,086
641,66	30,690
641,84	30,510
642,03	26,689
642,22	30,906
642,41	32,803
642,60	29,117
642,79	30,176
642,98	32,576
643,17	29,850
643,35	27,952
643,54	29,647
643,73	32,207
643,92	30,874
644,11	29,947
644,30	28,546
644,49	31,745
644,67	29,552
644,86	27,750
645,05	32,022
645,24	29,836
645,43	30,005
645,62	30,942
645,81	30,762
645,99	31,738
646,18	32,917
646,37	30,236
646,56	29,345
646,75	31,967
646,94	33,390
647,13	28,780
647,31	28,891
647,50	30,211
647,69	33,722
647,88	31,673
648,07	29,991
648,26	34,955
648,44	29,571
648,63	29,392
648,82	29,236
649,01	33,481
649,20	29,008
649,38	30,091
649,57	28,892
649,76	29,073
649,95	32,320
650,14	29,533
650,33	28,902
650,51	31,624
650,70	31,608
650,89	30,055
651,08	29,442
651,27	30,877
651,45	29,936
651,64	29,254
651,83	29,734
652,02	30,420
652,21	31,680
652,39	30,824
652,58	32,024
652,77	31,176
652,96	31,215
653,15	31,864
653,33	29,393
653,52	30,869
653,71	33,142
653,90	30,332
654,09	29,475
654,27	29,512
654,46	30,915
654,65	29,476
654,84	30,412
655,02	31,600
655,21	31,815
655,40	32,609
655,59	29,137
655,77	31,156
655,96	30,406
656,15	31,131
656,34	30,843
656,53	30,849
656,71	31,237
656,90	29,318
657,09	30,274
657,28	29,970
657,46	30,582
657,65	29,949
657,84	28,344
658,03	31,241
658,21	30,651
658,40	30,651
658,59	30,494
658,78	31,046
658,96	31,196
659,15	30,117
659,34	30,823
659,52	31,844
659,71	30,414
659,90	30,013
660,09	31,743
660,27	30,787
660,46	34,065
660,65	29,478
660,84	29,453
661,02	31,965
661,21	31,451
661,40	30,460
661,58	30,325
661,77	31,423
661,96	28,529
662,15	29,742
662,33	28,968
662,52	30,605
662,71	31,700
662,89	29,696
663,08	29,765
663,27	30,404
663,45	30,087
663,64	30,148
663,83	29,082
664,02	28,992
664,20	30,622
664,39	28,083
664,58	30,684
664,76	31,707
664,95	29,870
665,14	30,126
665,32	28,640
665,51	31,465
665,70	31,066
665,88	31,786
666,07	30,952
666,26	33,655
666,44	31,493
666,63	29,605
666,82	29,238
667,00	31,990
667,19	29,396
667,38	30,871
667,56	31,787
667,75	31,326
667,94	31,913
668,12	28,934
668,31	30,431
668,50	31,572
668,68	32,247
668,87	30,352
669,06	30,349
669,24	30,798
669,43	30,020
669,62	29,817
669,80	28,747
669,99	29,921
670,18	29,657
670,36	27,985
670,55	28,748
670,74	30,388
670,92	27,625
671,11	29,908
671,29	29,283
671,48	30,414
671,67	30,636
671,85	30,974
672,04	28,526
672,23	28,913
672,41	30,309
672,60	29,582
672,78	28,258
672,97	29,766
673,16	31,824
673,34	29,787
673,53	28,540
673,71	30,216
673,90	31,391
674,09	29,928
674,27	28,501
674,46	30,730
674,64	30,757
674,83	29,278
675,02	28,271
675,20	31,536
675,39	28,114
675,57	30,070
675,76	29,310
675,95	32,301
676,13	30,257
676,32	30,770
676,50	29,767
676,69	27,110
676,88	28,724
677,06	28,245
677,25	29,566
677,43	33,040
677,62	30,735
677,80	29,734
677,99	28,125
678,18	30,810
678,36	31,339
678,55	29,593
678,73	29,314
678,92	31,088
679,10	30,953
679,29	30,339
679,48	27,878
679,66	30,140
679,85	29,846
680,03	29,569
680,22	29,269
680,40	29,645
680,59	30,642
680,77	30,314
680,96	30,629
681,15	28,527
681,33	32,494
681,52	28,413
681,70	30,518
681,89	32,519
682,07	31,312
682,26	29,022
682,44	30,714
682,63	31,082
682,81	31,089
683,00	31,214
683,18	28,195
683,37	30,702
683,55	29,514
683,74	30,465
683,92	37,729
684,11	30,915
684,29	30,034
684,48	28,617
684,67	29,720
684,85	28,993
685,04	31,223
685,22	30,317
685,41	30,150
685,59	30,890
685,78	28,710
685,96	28,483
686,15	28,820
686,33	28,388
686,52	28,899
686,70	30,435
686,89	30,272
687,07	29,377
687,26	31,287
687,44	30,885
687,62	29,333
687,81	31,304
687,99	30,543
688,18	29,634
688,36	30,985
688,55	31,852
688,73	30,949
688,92	28,912
689,10	30,991
689,29	31,227
689,47	30,995
689,66	29,546
689,84	28,812
690,03	29,387
690,21	30,571
690,40	29,519
690,58	29,424
690,76	28,939
690,95	31,093
691,13	29,829
691,32	30,862
691,50	30,002
691,69	31,825
691,87	29,188
692,06	29,353
692,24	29,944
692,43	30,289
692,61	28,948
692,79	28,175
692,98	29,255
693,16	32,266
693,35	28,853
693,53	29,395
693,72	31,344
693,90	30,789
694,08	29,383
694,27	29,273
694,45	32,130
694,64	32,327
694,82	28,421
695,01	29,136
695,19	27,872
695,37	30,816
695,56	27,885
695,74	29,545
695,93	31,773
696,11	30,923
696,29	30,562
696,48	30,370
696,66	31,118
696,85	30,626
697,03	28,130
697,21	30,914
697,40	30,982
697,58	30,317
697,77	29,815
697,95	30,989
698,13	31,290
698,32	29,817
698,50	28,879
698,69	28,787
698,87	31,530
699,05	30,803
699,24	27,793
699,42	30,292
699,60	28,103
699,79	28,698
699,97	30,575
700,16	28,192
700,34	32,656
700,52	30,393
700,71	30,097
700,89	29,257
701,07	30,228
701,26	30,527
701,44	28,886
701,63	28,449
701,81	32,103
701,99	31,971
702,18	28,291
702,36	25,717
702,54	31,434
702,73	28,711
702,91	29,244
703,09	29,289
703,28	29,244
703,46	30,587
703,64	29,468
703,83	29,712
704,01	30,576
704,19	29,469
704,38	28,190
704,56	28,160
704,74	31,891
704,93	29,712
705,11	29,836
705,29	29,696
705,48	37,592
705,66	30,320
705,84	29,991
706,03	27,624
706,21	31,150
706,39	30,647
706,58	29,592
706,76	27,404
706,94	32,152
707,12	31,035
707,31	28,241
707,49	29,462
707,67	30,652
707,86	31,867
708,04	29,950
708,22	26,929
708,41	29,095
708,59	29,281
708,77	28,035
708,95	30,325
709,14	32,391
709,32	30,411
709,50	28,032
709,69	27,899
709,87	29,738
710,05	32,003
710,23	28,663
710,42	27,215
710,60	30,231
710,78	31,969
710,97	28,123
711,15	28,673
711,33	30,692
711,51	29,034
711,70	28,760
711,88	28,373
712,06	31,402
712,24	30,526
712,43	31,254
712,61	28,219
712,79	29,394
712,97	29,526
713,16	29,785
713,34	29,514
713,52	30,790
713,70	30,162
713,89	28,243
714,07	29,119
714,25	30,702
714,43	32,095
714,62	29,158
714,80	29,128
714,98	27,402
715,16	30,698
715,35	26,785
715,53	28,269
715,71	30,583
715,89	31,873
716,07	30,553
716,26	33,397
716,44	30,590
716,62	29,800
716,80	29,872
716,99	29,077
717,17	31,570
717,35	29,898
717,53	27,428
717,71	28,816
717,90	30,835
718,08	29,079
718,26	26,356
718,44	28,839
718,62	29,805
718,81	29,783
718,99	29,155
719,17	29,469
719,35	29,274
719,53	28,903
719,72	28,953
719,90	28,483
720,08	30,051
720,26	33,096
720,44	28,188
720,62	28,429
720,81	31,321
720,99	31,367
721,17	28,569
721,35	30,772
721,53	29,394
721,72	32,156
721,90	28,685
722,08	28,217
722,26	32,251
722,44	29,436
722,62	30,298
722,81	27,323
722,99	30,201
723,17	29,523
723,35	30,577
723,53	27,352
723,71	30,532
723,89	31,937
724,08	27,311
724,26	28,999
724,44	30,355
724,62	31,497
724,80	28,055
724,98	30,697
725,16	31,605
725,35	31,289
725,53	28,209
725,71	27,766
725,89	29,978
726,07	31,491
726,25	33,081
726,43	28,564
726,61	30,296
726,80	33,327
726,98	28,745
727,16	29,150
727,34	30,129
727,52	29,273
727,70	29,660
727,88	27,665
728,06	26,727
728,25	28,594
728,43	28,959
728,61	28,767
728,79	30,509
728,97	30,390
729,15	28,672
729,33	29,537
729,51	28,976
729,69	31,328
729,87	31,093
730,06	28,963
730,24	30,228
730,42	33,181
730,60	27,458
730,78	29,300
730,96	28,645
731,14	30,228
731,32	29,351
731,50	29,338
731,68	29,105
731,86	30,717
732,04	30,993
732,22	29,649
732,41	33,651
732,59	29,006
732,77	31,983
732,95	31,682
733,13	31,090
733,31	30,984
733,49	26,519
733,67	30,191
733,85	30,511
734,03	29,407
734,21	27,585
734,39	31,237
734,57	31,359
734,75	30,695
734,93	28,124
735,11	29,132
735,29	25,625
735,47	32,060
735,65	27,446
735,84	29,289
736,02	30,516
736,20	33,693
736,38	28,365
736,56	27,550
736,74	29,141
736,92	30,549
737,10	27,993
737,28	29,651
737,46	31,255
737,64	28,764
737,82	29,705
738,00	30,751
738,18	31,442
738,36	30,744
738,54	29,519
738,72	28,020
738,90	29,007
739,08	30,779
739,26	27,453
739,44	30,291
739,62	33,580
739,80	32,086
739,98	28,648
740,16	28,110
740,34	30,505
740,52	33,377
740,70	29,033
740,88	26,925
741,06	31,964
741,24	29,705
741,42	32,748
741,60	28,958
741,78	32,781
741,96	30,150
742,14	27,813
742,32	27,333
742,50	29,500
742,68	31,133
742,86	29,871
743,04	27,928
743,21	31,851
743,39	29,677
743,57	28,620
743,75	28,433
743,93	28,480
744,11	26,029
744,29	28,692
744,47	28,857
744,65	29,151
744,83	29,628
745,01	28,391
745,19	28,773
745,37	34,142
745,55	32,112
745,73	30,232
745,91	27,060
746,09	26,866
746,27	28,795
746,45	26,725
746,62	27,524
746,80	28,385
746,98	29,699
747,16	27,363
747,34	28,806
747,52	28,819
747,70	29,886
747,88	27,808
748,06	29,360
748,24	29,579
748,42	32,685
748,60	28,507
748,78	26,702
748,95	32,539
749,13	33,847
749,31	28,842
749,49	27,990
749,67	30,477
749,85	33,000
750,03	29,073
750,21	29,258
750,39	30,661
750,57	28,974
750,74	28,367
750,92	27,439
751,10	32,453
751,28	27,396
751,46	29,013
751,64	31,212
751,82	30,081
752,00	31,949
752,17	29,234
752,35	29,325
752,53	29,731
752,71	30,725
752,89	29,112
753,07	27,488
753,25	29,855
753,43	27,572
753,60	31,911
753,78	28,668
753,96	30,308
754,14	30,574
754,32	28,788
754,50	29,732
754,68	30,787
754,85	29,650
755,03	29,209
755,21	27,150
755,39	33,134
755,57	29,243
755,75	27,846
755,92	28,142
756,10	29,741
756,28	30,812
756,46	27,975
756,64	28,569
756,82	31,544
756,99	28,240
757,17	27,122
757,35	26,801
757,53	31,419
757,71	33,955
757,89	27,086
758,06	29,248
758,24	30,987
758,42	29,437
758,60	29,782
758,78	28,496
758,95	31,049
759,13	30,351
759,31	27,799
759,49	26,291
759,67	31,615
759,84	28,477
760,02	29,845
760,20	28,592
760,38	30,740
760,56	27,518
760,73	30,402
760,91	29,480
761,09	32,076
761,27	29,565
761,45	29,162
761,62	29,117
761,80	30,030
761,98	30,923
762,16	29,599
762,33	29,027
762,51	30,860
762,69	27,872
762,87	28,993
763,05	28,609
763,22	28,033
763,40	27,036
763,58	27,372
763,76	29,854
763,93	29,282
764,11	31,170
764,29	28,890
764,47	28,801
764,64	29,002
764,82	33,104
765,00	28,289
765,18	26,109
765,35	28,041
765,53	29,419
765,71	29,137
765,89	28,602
766,06	27,455
766,24	28,890
766,42	31,281
766,60	27,128
766,77	28,456
766,95	29,333
767,13	28,492
767,30	28,854
767,48	27,860
767,66	29,425
767,84	27,567
768,01	27,025
768,19	30,634
768,37	29,592
768,54	27,254
768,72	31,019
768,90	28,787
769,08	29,366
769,25	30,085
769,43	28,130
769,61	26,615
769,78	29,359
769,96	27,885
770,14	29,775
770,31	31,344
770,49	32,779
770,67	30,783
770,85	26,811
771,02	31,037
771,20	27,864
771,38	28,367
771,55	29,258
771,73	27,865
771,91	30,148
772,08	30,049
772,26	29,002
772,44	28,780
772,61	29,511
772,79	28,056
772,97	28,205
773,14	27,741
773,32	31,882
773,50	28,231
773,67	30,271
773,85	33,112
774,03	33,540
774,20	27,414
774,38	28,878
774,56	28,679
774,73	28,585
774,91	28,226
775,09	27,207
775,26	30,926
775,44	32,918
775,61	30,666
775,79	26,576
775,97	31,251
776,14	30,009
776,32	26,514
776,50	30,364
776,67	30,400
776,85	29,973
777,03	26,636
777,20	29,138
777,38	32,626
777,55	31,134
777,73	26,209
777,91	28,796
778,08	30,934
778,26	28,683
778,43	30,382
778,61	26,583
778,79	26,772
778,96	28,262
779,14	28,453
779,32	27,923
779,49	30,799
779,67	32,520
779,84	29,942
780,02	30,554
780,20	26,269
780,37	31,396
780,55	27,598
780,72	29,535
780,90	28,655
781,07	28,081
781,25	29,603
781,43	30,130
781,60	29,583
781,78	29,299
781,95	30,522
782,13	30,432
782,30	33,902
782,48	30,968
782,66	28,130
782,83	28,017
783,01	36,848
783,18	30,747
783,36	30,240
783,53	30,079
783,71	28,607
783,89	30,084
784,06	28,166
784,24	29,128
784,41	32,147
784,59	28,520
784,76	28,548
784,94	27,408
785,11	30,935
785,29	27,826
785,46	26,109
785,64	28,901
785,82	31,287
785,99	31,522
786,17	30,093
786,34	26,663
786,52	31,783
786,69	32,793
786,87	27,377
787,04	28,997
787,22	26,645
787,39	34,686
787,57	30,410
787,74	29,527
787,92	33,718
788,09	29,621
788,27	29,074
788,44	26,986
788,62	30,613
788,79	29,965
788,97	32,294
789,14	27,426
789,32	29,679
789,49	30,856
789,67	31,463
789,84	31,713
790,02	32,016
790,19	28,884
790,37	31,708
790,54	29,868
790,72	35,144
790,89	33,575
791,07	30,596
791,24	24,732
791,42	28,981
791,59	32,321
791,77	26,983
791,94	27,750
792,12	28,702
792,29	32,782
792,47	30,772
792,64	32,042
792,81	33,962
792,99	29,569
793,16	30,443
793,34	29,349
793,51	30,926
793,69	31,775
793,86	27,858
794,04	31,709
794,21	33,264
794,39	25,257
794,56	28,800
794,73	30,308
794,91	35,164
795,08	30,271
795,26	30,936
795,43	28,996
795,61	34,670
795,78	35,069
795,95	31,371
796,13	30,873
796,30	30,753
796,48	29,485
796,65	32,381
796,83	31,137
797,00	37,159
797,17	30,438
797,35	29,162
797,52	31,791
797,70	35,038
797,87	31,358
798,04	28,449
798,22	30,906
798,39	31,277
798,57	32,307
798,74	33,113
798,91	27,151
799,09	30,340
799,26	33,532
799,44	32,025
799,61	27,722
799,78	32,372
799,96	36,473
800,13	29,436
800,31	30,688
800,48	38,121
800,65	35,506
800,83	31,547
801,00	31,495
801,17	33,881
801,35	34,284
801,52	29,691
801,70	32,218
801,87	31,922
802,04	33,990
802,22	29,432
802,39	31,896
802,56	38,973
802,74	35,561
802,91	31,997
803,08	28,615
803,26	33,404
803,43	36,779
803,61	27,624
803,78	30,164
803,95	36,564
804,13	32,597
804,30	30,198
804,47	33,894
804,65	34,798
804,82	32,533
804,99	28,954
805,17	31,632
805,34	40,428
805,51	39,165
805,69	28,710
805,86	30,509
806,03	37,781
806,21	34,377
806,38	30,191
806,55	35,788
806,72	36,357
806,90	37,843
807,07	29,421
807,24	25,982
807,42	28,181
807,59	34,997
807,76	25,557
807,94	30,002
808,11	33,711
808,28	37,063
808,45	31,962
808,63	33,673
808,80	37,893
808,97	32,371
809,15	27,620
809,32	35,708
809,49	32,154
809,67	33,975
809,84	32,536
810,01	36,609
810,18	42,038
810,36	37,213
810,53	34,450
810,70	35,086
810,87	32,293
811,05	35,157
811,22	34,625
811,39	32,599
811,57	37,572
811,74	36,934
811,91	28,323
812,08	35,015
812,26	36,157
812,43	33,712
812,60	35,854
812,77	33,369
812,95	35,873
813,12	37,324
813,29	25,077
813,46	29,687
813,64	37,496
813,81	38,800
813,98	32,797
814,15	31,028
814,32	36,436
814,50	36,166
814,67	36,235
814,84	33,998
815,01	33,654
815,19	24,689
815,36	23,775
815,53	32,742
815,70	32,184
815,87	24,529
816,05	29,099
816,22	34,295
816,39	35,016
816,56	37,042
816,74	34,433
816,91	30,425
817,08	42,885
817,25	38,167
817,42	30,704
817,60	32,598
817,77	37,404
817,94	33,600
818,11	31,986
818,28	36,228
818,45	37,262
818,63	38,172
818,80	32,777
818,97	30,689
819,14	34,066
819,31	45,753
819,49	41,490
819,66	31,315
819,83	37,775
820,00	38,573
820,17	30,833
820,34	33,725
820,52	35,103
820,69	33,712
820,86	27,292
821,03	32,873
821,20	39,662
821,37	42,190
821,55	26,348
821,72	35,264
821,89	35,746
822,06	40,066
822,23	29,257
822,40	33,387
822,57	35,723
822,75	44,973
822,92	30,907
823,09	34,372
823,26	40,431
823,43	43,583
823,60	31,987
823,77	31,090
823,94	41,831
824,12	45,070
824,29	34,749
824,46	31,261
824,63	43,888
824,80	35,451
824,97	30,989
825,14	35,564
825,31	39,925
825,49	34,396
825,66	31,983
825,83	29,910
826,00	35,181
826,17	44,327
826,34	35,621
826,51	30,493
826,68	27,528
826,85	40,003
827,02	34,141
827,20	28,835
827,37	36,403
827,54	34,623
827,71	31,149
827,88	36,431
828,05	41,685
828,22	40,586
828,39	41,506
828,56	40,949
828,73	38,259
828,90	39,475
829,07	31,730
829,25	34,754
829,42	35,491
829,59	36,619
829,76	28,523
829,93	31,167
830,10	39,229
830,27	33,057
830,44	34,090
830,61	30,231
830,78	49,743
830,95	39,827
831,12	31,619
831,29	32,339
831,46	33,185
831,63	35,018
831,80	30,553
831,97	30,543
832,14	38,791
832,31	51,619
832,48	36,390
832,65	45,663
832,83	36,064
833,00	39,701
833,17	32,300
833,34	38,921
833,51	37,790
833,68	49,012
833,85	41,770
834,02	26,980
834,19	35,427
834,36	43,139
834,53	30,431
834,70	33,368
834,87	51,540
835,04	35,935
835,21	38,884
835,38	32,087
835,55	34,865
835,72	46,882
835,89	42,689
836,06	36,817
836,23	54,118
836,40	30,320
836,57	29,990
836,74	43,267
836,91	43,076
837,08	48,309
837,25	38,628
837,42	29,629
837,59	34,695
837,76	42,956
837,93	35,362
838,09	27,498
838,26	42,494
838,43	49,747
838,60	35,818
838,77	38,128
838,94	40,089
839,11	32,537
839,28	33,187
839,45	30,497
839,62	40,830
839,79	38,593
839,96	35,848
840,13	44,228
840,30	38,596
840,47	34,617
840,64	40,501
840,81	36,303
840,98	42,570
841,15	49,210
841,32	27,706
841,48	42,988
841,65	39,071
841,82	40,481
841,99	37,396
842,16	28,004
842,33	41,693
842,50	43,127
842,67	39,080
842,84	34,155
843,01	49,983
843,18	45,606
843,35	44,219
843,52	38,290
843,68	42,321
843,85	46,806
844,02	32,070
844,19	29,195
844,36	56,212
844,53	54,003
844,70	38,598
844,87	41,879
845,04	41,452
845,21	34,502
845,37	47,339
845,54	37,097
845,71	34,678
845,88	65,533
846,05	30,739
846,22	24,778
846,39	42,672
846,56	56,922
846,72	37,216
846,89	39,236
847,06	60,023
847,23	51,629
847,40	38,110
847,57	39,366
847,74	39,654
847,90	54,577
848,07	36,882
848,24	32,806
848,41	51,129
848,58	56,408
848,75	36,776
848,92	31,486
849,08	46,108
849,25	34,181
849,42	30,597
849,59	43,757
849,76	36,710
849,93	53,504
850,09	38,252
850,26	26,412
850,43	50,824
850,60	32,949
850,77	31,657
850,94	39,895
851,10	41,726
851,27	44,586
851,44	32,151
851,61	23,140
851,78	55,252
851,95	44,625
852,11	24,246
852,28	50,327
852,45	56,772
852,62	55,572
852,79	38,112
852,95	29,368
853,12	45,022
853,29	49,040
853,46	28,298
853,63	43,054
853,79	44,956
853,96	38,423
854,13	46,704
854,30	33,833
854,46	58,637
854,63	50,082
854,80	45,660
854,97	30,351
855,14	62,217
855,30	56,939
855,47	38,784
855,64	30,330
855,81	49,273
855,97	62,738
856,14	43,484
856,31	27,666
856,48	59,647
856,65	65,814
856,81	39,676
856,98	33,324
857,15	38,673
857,32	59,500
857,48	46,510
857,65	48,400
857,82	58,519
857,99	58,307
858,15	41,772
858,32	42,086
858,49	53,494
858,65	91,471
858,82	44,862
858,99	42,933
859,16	66,750
859,32	58,205
859,49	34,217
859,66	46,912
859,83	51,676
859,99	40,614
860,16	57,600
860,33	48,135
860,49	56,370
860,66	62,534
860,83	61,118
861,00	37,122
861,16	59,080
861,33	49,043
861,50	50,421
861,66	45,054
861,83	67,075
862,00	54,176
862,16	45,147
862,33	35,599
862,50	84,773
862,67	53,265
862,83	48,821
863,00	48,724
863,17	68,272
863,33	54,905
863,50	17,958
863,67	37,599
863,83	64,124
864,00	61,559
864,17	31,728
864,33	31,902
864,50	60,538
864,67	58,931
864,83	30,801
865,00	39,040
865,17	52,036
865,33	78,418
865,50	25,478
865,67	34,131
865,83	65,949
866,00	90,348
866,17	38,065
866,33	64,829
866,50	72,557
866,66	51,985
866,83	49,424
867,00	57,620
867,16	85,531
867,33	89,745
867,50	28,824
867,66	35,768
867,83	90,784
868,00	63,444
868,16	41,501
868,33	50,507
868,49	83,067
868,66	64,682
868,83	58,260
868,99	62,347
869,16	73,030
869,32	91,938
869,49	45,280
869,66	36,700
869,82	83,267
869,99	97,755
870,15	38,283
870,32	59,886
870,49	88,188
870,65	140,136
870,82	50,279
870,98	46,872
871,15	113,713
871,32	78,637
871,48	7,354
871,65	22,320
871,81	66,508
871,98	34,636
872,15	22,991
872,31	29,798
872,48	126,715
872,64	80,658
872,81	47,149
872,97	63,481
873,14	101,448
873,31	84,515
873,47	60,815
873,64	78,757
873,80	136,923
873,97	114,730
874,13	28,669
874,30	43,648
874,46	91,353
874,63	92,767
874,80	41,509
874,96	11,564
875,13	124,661
875,29	72,684
875,46	88,060
875,62	38,678
875,79	116,207
875,95	74,623
876,12	49,202
876,28	18,830
876,45	120,045
876,61	36,390
876,78	43,773
876,94	16,978
877,11	96,775
877,27	85,521
877,44	59,358
877,60	70,336
877,77	109,180
877,94	116,624
878,10	0,466
878,27	94,303
878,43	142,158
878,60	23,941
878,76	62,376
878,93	52,225
879,09	98,622
879,26	144,584
879,42	71,149
879,58	67,173
879,75	135,501
879,91	131,414
880,08	-29,848
880,24	64,458
880,41	106,037
880,57	95,746
880,74	26,812
880,90	22,848
881,07	102,944
881,23	138,665
881,40	47,789
881,56	60,910
881,73	128,229
881,89	94,462
882,06	-65,919
882,22	164,698
882,38	124,484
882,55	159,340
882,71	66,826
882,88	57,409
883,04	304,601
883,21	227,877
883,37	84,399
883,54	91,311
883,70	279,448
883,86	140,503
884,03	60,514
884,19	30,985
884,36	230,556
884,52	268,873
884,69	84,207
884,85	43,948
885,01	285,520
885,18	135,438
885,34	116,684
885,51	31,104
885,67	116,067
>>>>> Data<<<<< Espectral Procesado Extremo
