Fichero De Datos De SpectraSuite
++++++++++++++++++++++++++++++++++++
Fecha: Wed Apr 22 13:06:20 CEST 2009
Usuario: evoflor
Presente Oscuro Del Espectro: Sí
La Referencia de Presente Del Espectro De: Sí
Muestreados de los componentes de Número de espectros: 1
Espectrómetros: USB4F02353
Tiempo de integración (usec): 500000 (USB4F02353)
Promedio de Espectros Hechos un: 5 (USB4F02353)
El Alisar Del Furgón: 0 (USB4F02353)
Párrafo de de Corregir del la del del de Eléctrica del obscuridad: Sí (USB4F02353)
Estrobo/Lámpara Permitido: No (USB4F02353)
Correct for Detector Non-linearity: No (USB4F02353)
Párrafo de de Corregir del la del del de Externa del luz: No (USB4F02353)
Procesado del espectro de Número de pixeles en: 3648
>>>>> Comienza Data<<<<< Espectral Procesado Del EL
177,79	361,644
178,00	361,644
178,22	361,644
178,44	2689,615
178,66	-393,780
178,88	624,283
179,09	-38,489
179,31	389,817
179,53	1003,235
179,75	48,931
179,96	822,802
180,18	-512,446
180,40	550,462
180,62	432,215
180,83	-204,360
181,05	-1207,866
181,27	-173745,000
181,49	166,207
181,70	363,635
181,92	420,533
182,14	620,919
182,36	67,027
182,58	-171,450
182,79	1438,594
183,01	-72,844
183,23	237,752
183,45	-61,062
183,66	230,774
183,88	778,500
184,10	-2602,636
184,32	338,725
184,53	349,921
184,75	-309,204
184,97	67,900
185,18	-213,242
185,40	-705,505
185,62	169,026
185,84	27,609
186,05	163,188
186,27	-169,846
186,49	5713,269
186,71	-5,652
186,92	132,823
187,14	-197,183
187,36	111,249
187,58	153,096
187,79	-113,594
188,01	452,156
188,23	-375,980
188,45	-120,169
188,66	293,504
188,88	-4779,000
189,10	-2088,450
189,31	-70,725
189,53	-50,830
189,75	566,693
189,97	332,481
190,18	77,446
190,40	699,088
190,62	-278,955
190,83	-276,741
191,05	270,501
191,27	264,986
191,49	336,498
191,70	-666,562
191,92	-702,076
192,14	-73,575
192,35	852,374
192,57	6095,571
192,79	-50,011
193,01	262,602
193,22	116,088
193,44	-222,773
193,66	84,963
193,87	-75,064
194,09	-96,023
194,31	235,438
194,53	768,147
194,74	59,589
194,96	82,922
195,18	118,949
195,39	-432,309
195,61	-212,243
195,83	-391,402
196,04	185,183
196,26	-217,312
196,48	40,343
196,70	300,686
196,91	108,764
197,13	335,051
197,35	162,470
197,56	900,139
197,78	1901,082
198,00	944,371
198,21	454,587
198,43	-1517,703
198,65	231,572
198,86	391,888
199,08	174,246
199,30	291,589
199,51	-187,769
199,73	344,144
199,95	454,567
200,16	865,558
200,38	410,143
200,60	175,956
200,81	275,685
201,03	247,133
201,25	-2106,450
201,46	206,385
201,68	59,420
201,90	3969,205
202,11	-580,706
202,33	113,187
202,55	1058,062
202,76	-227,626
202,98	197,718
203,20	-368,005
203,41	-407,605
203,63	289,681
203,85	-149445,000
204,06	154,629
204,28	-256,012
204,50	211,654
204,71	462,800
204,93	216,360
205,15	238,690
205,36	-263,375
205,58	305,845
205,80	-45,161
206,01	85,607
206,23	110,538
206,45	293,428
206,66	172,030
206,88	-48,479
207,10	235,330
207,31	493,570
207,53	354,986
207,75	99,097
207,96	1491,381
208,18	-279,599
208,39	127,001
208,61	2958,429
208,83	-496,321
209,04	424,079
209,26	-680,392
209,48	171,859
209,69	241,040
209,91	617,382
210,13	80,093
210,34	211,489
210,56	226,386
210,77	-1212,165
210,99	100,144
211,21	8896,765
211,42	-141,964
211,64	-7,168
211,86	268,159
212,07	366,828
212,29	368,148
212,50	155,075
212,72	412,096
212,94	190,757
213,15	208,718
213,37	109,660
213,58	45,798
213,80	-2219,464
214,02	13026,176
214,23	354,827
214,45	422,115
214,67	-1109,085
214,88	-335,386
215,10	-244,093
215,31	57,085
215,53	-3,989
215,75	273,991
215,96	2202,764
216,18	431,620
216,39	379,339
216,61	780,229
216,83	783,683
217,04	1446,573
217,26	82,815
217,47	211,716
217,69	395,489
217,91	-83,621
218,12	-110745,000
218,34	82,620
218,55	520,544
218,77	149,735
218,99	94,734
219,20	-226,263
219,42	555,709
219,63	-119,072
219,85	-176,068
220,06	124,788
220,28	201,927
220,50	132,042
220,71	30,403
220,93	3906,509
221,14	-2070,450
221,36	36,052
221,58	32,645
221,79	196,235
222,01	1179,698
222,22	817,401
222,44	303,876
222,65	124,455
222,87	459,755
223,09	156,039
223,30	106,381
223,52	295,946
223,73	232,083
223,95	-8,810
224,16	126,278
224,38	275,225
224,60	188,293
224,81	-35,394
225,03	145,754
225,24	239,890
225,46	113,696
225,67	46,925
225,89	-41,171
226,10	656,160
226,32	965,160
226,54	-41,173
226,75	-41,233
226,97	202,086
227,18	211,839
227,40	64,912
227,61	43,701
227,83	74,643
228,04	206,925
228,26	59,941
228,47	70,875
228,69	249,268
228,91	224,374
229,12	108,497
229,34	32,648
229,55	81,450
229,77	47,367
229,98	24,309
230,20	101,818
230,41	1,817
230,63	131,156
230,84	37,148
231,06	17,699
231,27	18,776
231,49	100,049
231,71	25,642
231,92	33,614
232,14	28,130
232,35	111,238
232,57	75,479
232,78	7,480
233,00	55,636
233,21	45,099
233,43	20,903
233,64	19,719
233,86	53,713
234,07	44,471
234,29	11,872
234,50	17,773
234,72	63,459
234,93	19,727
235,15	35,886
235,36	28,325
235,58	44,442
235,79	73,825
236,01	28,786
236,22	21,098
236,44	41,881
236,65	36,572
236,87	29,477
237,08	4,865
237,30	8,683
237,51	18,453
237,73	-6,278
237,94	7,084
238,16	30,271
238,37	24,814
238,59	16,273
238,80	25,903
239,02	16,190
239,23	31,276
239,45	0,250
239,66	33,205
239,88	34,292
240,09	32,775
240,31	3,207
240,52	12,362
240,74	14,710
240,95	21,347
241,17	5,792
241,38	13,989
241,60	18,128
241,81	33,195
242,03	7,049
242,24	14,901
242,46	26,251
242,67	3,458
242,89	10,954
243,10	21,341
243,32	19,217
243,53	20,619
243,75	5,368
243,96	9,366
244,18	17,472
244,39	11,670
244,60	10,789
244,82	9,430
245,03	27,772
245,25	14,569
245,46	28,342
245,68	7,780
245,89	26,752
246,11	17,735
246,32	6,631
246,54	10,252
246,75	9,477
246,97	18,718
247,18	21,239
247,39	2,088
247,61	6,525
247,82	18,563
248,04	8,525
248,25	7,049
248,47	15,154
248,68	18,588
248,90	7,847
249,11	8,609
249,33	21,658
249,54	8,541
249,75	12,690
249,97	5,367
250,18	20,384
250,40	20,143
250,61	-6,794
250,83	5,553
251,04	5,594
251,25	20,015
251,47	4,580
251,68	12,609
251,90	13,418
252,11	19,483
252,33	6,072
252,54	9,877
252,76	10,464
252,97	7,622
253,18	5,105
253,40	0,929
253,61	6,559
253,83	11,697
254,04	11,746
254,25	3,530
254,47	6,973
254,68	8,476
254,90	7,015
255,11	12,310
255,33	11,418
255,54	10,514
255,75	7,788
255,97	6,424
256,18	4,406
256,40	8,332
256,61	8,114
256,82	2,523
257,04	18,232
257,25	5,310
257,47	5,558
257,68	6,310
257,89	6,993
258,11	12,315
258,32	9,952
258,54	9,973
258,75	16,220
258,96	13,624
259,18	9,359
259,39	3,782
259,61	14,366
259,82	6,132
260,03	10,704
260,25	7,206
260,46	7,734
260,68	11,220
260,89	5,682
261,10	6,075
261,32	5,486
261,53	3,164
261,75	10,310
261,96	1,749
262,17	14,177
262,39	16,024
262,60	5,332
262,81	-0,662
263,03	14,379
263,24	10,255
263,46	5,209
263,67	3,560
263,88	8,094
264,10	10,696
264,31	0,915
264,52	4,998
264,74	12,794
264,95	8,310
265,17	9,050
265,38	6,006
265,59	14,458
265,81	10,966
266,02	3,108
266,23	2,764
266,45	13,297
266,66	12,574
266,87	9,943
267,09	3,542
267,30	15,401
267,52	12,831
267,73	9,114
267,94	6,136
268,16	11,905
268,37	6,852
268,58	9,390
268,80	6,235
269,01	6,582
269,22	12,804
269,44	9,711
269,65	5,749
269,86	3,804
270,08	12,911
270,29	8,594
270,50	10,049
270,72	13,336
270,93	3,594
271,14	4,275
271,36	3,377
271,57	11,126
271,78	6,868
272,00	7,839
272,21	6,073
272,42	8,354
272,64	9,984
272,85	5,061
273,06	4,804
273,28	8,847
273,49	11,556
273,70	8,702
273,92	7,559
274,13	8,951
274,34	6,035
274,56	8,414
274,77	7,478
274,98	11,587
275,20	8,309
275,41	11,488
275,62	5,181
275,84	7,055
276,05	16,589
276,26	3,422
276,47	-1,660
276,69	9,509
276,90	9,589
277,11	6,402
277,33	8,604
277,54	9,191
277,75	8,796
277,97	6,143
278,18	1,239
278,39	10,262
278,61	4,820
278,82	10,947
279,03	7,169
279,24	6,782
279,46	6,185
279,67	12,108
279,88	8,010
280,10	14,208
280,31	6,802
280,52	7,808
280,73	1,485
280,95	11,631
281,16	10,294
281,37	9,644
281,59	9,698
281,80	15,231
282,01	9,748
282,22	5,734
282,44	2,343
282,65	16,780
282,86	13,438
283,08	6,299
283,29	7,010
283,50	6,119
283,71	12,349
283,93	8,746
284,14	11,313
284,35	6,147
284,56	9,831
284,78	5,323
284,99	9,929
285,20	12,845
285,42	8,297
285,63	7,040
285,84	2,063
286,05	7,973
286,27	9,186
286,48	6,278
286,69	5,731
286,90	7,555
287,12	8,087
287,33	3,567
287,54	3,269
287,75	11,513
287,97	7,913
288,18	5,430
288,39	4,980
288,60	10,079
288,82	10,067
289,03	5,969
289,24	8,148
289,45	10,710
289,67	5,702
289,88	7,159
290,09	7,485
290,30	8,534
290,52	3,387
290,73	4,820
290,94	1,375
291,15	7,435
291,37	8,478
291,58	6,692
291,79	6,433
292,00	9,834
292,21	7,990
292,43	5,622
292,64	3,135
292,85	4,099
293,06	10,078
293,28	7,783
293,49	1,427
293,70	14,692
293,91	5,300
294,12	7,414
294,34	7,264
294,55	8,308
294,76	8,477
294,97	7,857
295,19	2,068
295,40	10,078
295,61	7,989
295,82	3,197
296,03	10,104
296,25	8,143
296,46	4,091
296,67	0,253
296,88	2,507
297,09	8,159
297,31	5,539
297,52	6,843
297,73	5,156
297,94	8,220
298,15	7,432
298,37	7,231
298,58	9,416
298,79	8,586
299,00	5,396
299,21	4,894
299,43	6,347
299,64	12,249
299,85	6,835
300,06	4,506
300,27	3,755
300,49	10,931
300,70	7,017
300,91	5,124
301,12	5,619
301,33	10,356
301,54	6,951
301,76	6,250
301,97	4,352
302,18	6,942
302,39	8,099
302,60	14,027
302,82	5,281
303,03	10,650
303,24	8,187
303,45	7,814
303,66	7,460
303,87	7,676
304,09	9,592
304,30	4,935
304,51	5,331
304,72	5,917
304,93	7,458
305,14	6,412
305,36	4,881
305,57	4,248
305,78	6,595
305,99	6,746
306,20	6,489
306,41	2,759
306,62	2,837
306,84	5,036
307,05	1,519
307,26	5,162
307,47	11,369
307,68	7,241
307,89	7,547
308,11	10,941
308,32	6,533
308,53	5,590
308,74	4,137
308,95	6,676
309,16	8,544
309,37	9,516
309,59	3,275
309,80	7,127
310,01	8,877
310,22	6,030
310,43	3,206
310,64	10,839
310,85	7,520
311,06	4,749
311,28	6,218
311,49	5,690
311,70	12,211
311,91	4,546
312,12	5,711
312,33	7,721
312,54	8,281
312,75	5,480
312,97	3,340
313,18	6,804
313,39	3,385
313,60	6,214
313,81	5,333
314,02	6,577
314,23	8,256
314,44	3,664
314,65	7,664
314,87	5,844
315,08	7,525
315,29	8,415
315,50	7,838
315,71	8,709
315,92	9,688
316,13	5,986
316,34	7,751
316,55	9,117
316,77	4,366
316,98	5,841
317,19	4,617
317,40	6,707
317,61	9,936
317,82	4,818
318,03	4,339
318,24	5,663
318,45	8,789
318,66	5,396
318,87	2,616
319,09	8,067
319,30	9,528
319,51	9,070
319,72	7,629
319,93	8,705
320,14	9,875
320,35	7,974
320,56	5,562
320,77	5,706
320,98	12,619
321,19	5,251
321,40	7,117
321,62	9,385
321,83	6,799
322,04	6,361
322,25	6,659
322,46	12,349
322,67	9,357
322,88	7,269
323,09	4,995
323,30	10,917
323,51	14,043
323,72	10,942
323,93	5,026
324,14	5,613
324,35	3,961
324,56	3,212
324,77	5,776
324,99	6,688
325,20	1,216
325,41	6,148
325,62	8,954
325,83	4,422
326,04	5,994
326,25	7,778
326,46	1,082
326,67	9,237
326,88	7,722
327,09	6,253
327,30	3,375
327,51	9,667
327,72	7,309
327,93	10,664
328,14	6,356
328,35	8,719
328,56	9,206
328,77	8,839
328,98	9,150
329,19	5,188
329,40	8,850
329,61	5,951
329,82	2,634
330,04	8,331
330,25	6,546
330,46	7,226
330,67	4,891
330,88	6,393
331,09	6,991
331,30	5,068
331,51	4,634
331,72	9,670
331,93	8,788
332,14	5,067
332,35	8,827
332,56	6,310
332,77	9,284
332,98	4,309
333,19	7,019
333,40	10,076
333,61	7,421
333,82	10,849
334,03	7,234
334,24	10,525
334,45	8,742
334,66	6,575
334,87	5,701
335,08	5,460
335,29	6,018
335,50	3,027
335,71	6,294
335,92	9,473
336,13	9,035
336,34	4,324
336,55	7,239
336,76	10,110
336,97	7,970
337,18	6,303
337,39	7,603
337,60	5,045
337,81	9,291
338,02	8,079
338,23	7,338
338,44	7,538
338,65	6,428
338,86	6,943
339,07	4,633
339,28	7,204
339,49	6,851
339,70	6,997
339,91	6,570
340,11	11,283
340,32	6,406
340,53	3,378
340,74	4,012
340,95	4,318
341,16	8,843
341,37	6,522
341,58	2,797
341,79	5,220
342,00	5,702
342,21	6,086
342,42	4,301
342,63	10,547
342,84	5,578
343,05	6,536
343,26	8,539
343,47	10,730
343,68	4,373
343,89	4,196
344,10	7,725
344,31	10,344
344,52	7,300
344,73	6,543
344,94	5,633
345,14	7,335
345,35	11,072
345,56	9,615
345,77	6,174
345,98	7,574
346,19	9,230
346,40	3,811
346,61	5,017
346,82	6,760
347,03	8,138
347,24	7,882
347,45	4,510
347,66	13,493
347,87	9,124
348,08	11,918
348,28	0,857
348,49	5,967
348,70	11,251
348,91	9,587
349,12	3,909
349,33	19,385
349,54	6,575
349,75	8,447
349,96	7,866
350,17	7,120
350,38	3,889
350,59	9,909
350,80	6,369
351,00	10,169
351,21	10,810
351,42	7,274
351,63	4,959
351,84	7,722
352,05	13,055
352,26	5,942
352,47	5,929
352,68	9,344
352,89	6,548
353,09	10,424
353,30	2,951
353,51	5,274
353,72	9,326
353,93	13,590
354,14	2,036
354,35	5,591
354,56	12,812
354,77	4,552
354,98	0,659
355,18	9,817
355,39	12,413
355,60	5,227
355,81	6,690
356,02	9,930
356,23	7,765
356,44	3,990
356,65	6,072
356,85	12,809
357,06	11,288
357,27	10,047
357,48	3,300
357,69	8,873
357,90	10,166
358,11	3,977
358,32	7,251
358,52	10,304
358,73	5,378
358,94	6,794
359,15	8,034
359,36	9,313
359,57	7,132
359,78	9,771
359,98	4,805
360,19	4,098
360,40	8,991
360,61	9,688
360,82	4,592
361,03	14,279
361,24	10,797
361,44	5,386
361,65	6,087
361,86	4,945
362,07	8,671
362,28	8,725
362,49	3,805
362,70	10,073
362,90	9,397
363,11	6,350
363,32	3,915
363,53	7,685
363,74	9,973
363,95	10,694
364,15	7,721
364,36	9,908
364,57	6,148
364,78	7,015
364,99	6,418
365,20	11,380
365,40	13,314
365,61	7,405
365,82	12,732
366,03	10,672
366,24	8,880
366,45	7,544
366,65	5,266
366,86	7,800
367,07	10,327
367,28	4,695
367,49	5,613
367,69	12,774
367,90	7,884
368,11	7,163
368,32	6,578
368,53	8,907
368,73	9,618
368,94	5,642
369,15	8,112
369,36	10,451
369,57	11,050
369,78	8,057
369,98	6,693
370,19	13,128
370,40	5,702
370,61	9,293
370,82	6,446
371,02	11,127
371,23	8,082
371,44	6,536
371,65	8,057
371,85	9,022
372,06	6,033
372,27	9,054
372,48	5,116
372,69	9,198
372,89	6,812
373,10	5,774
373,31	7,251
373,52	10,630
373,73	11,801
373,93	6,874
374,14	8,395
374,35	8,396
374,56	9,585
374,76	8,228
374,97	5,949
375,18	10,498
375,39	8,603
375,60	10,077
375,80	8,118
376,01	8,874
376,22	10,804
376,43	2,951
376,63	7,849
376,84	8,973
377,05	8,997
377,26	4,319
377,46	5,041
377,67	9,303
377,88	7,818
378,09	4,940
378,29	7,612
378,50	9,907
378,71	12,164
378,92	8,059
379,12	8,511
379,33	7,398
379,54	6,664
379,75	11,514
379,95	7,924
380,16	9,340
380,37	12,047
380,58	8,588
380,78	14,016
380,99	9,174
381,20	7,605
381,41	7,156
381,61	8,557
381,82	9,052
382,03	7,292
382,24	8,941
382,44	9,948
382,65	9,251
382,86	9,448
383,06	11,570
383,27	8,469
383,48	9,490
383,69	14,532
383,89	11,237
384,10	7,861
384,31	10,890
384,51	14,231
384,72	12,753
384,93	7,730
385,14	8,836
385,34	9,755
385,55	7,170
385,76	4,943
385,96	14,092
386,17	8,814
386,38	12,884
386,59	12,702
386,79	9,874
387,00	18,383
387,21	17,726
387,41	13,487
387,62	11,353
387,83	17,284
388,03	9,937
388,24	4,799
388,45	9,254
388,66	10,123
388,86	9,432
389,07	10,391
389,28	15,494
389,48	14,668
389,69	12,747
389,90	8,720
390,10	12,892
390,31	18,964
390,52	9,395
390,72	12,792
390,93	11,305
391,14	12,494
391,34	11,437
391,55	16,860
391,76	16,786
391,96	14,844
392,17	13,429
392,38	16,302
392,58	15,337
392,79	13,814
393,00	11,084
393,20	14,800
393,41	13,851
393,62	16,642
393,82	16,564
394,03	14,388
394,24	16,217
394,44	21,814
394,65	15,124
394,86	14,279
395,06	19,647
395,27	14,548
395,48	10,626
395,68	15,169
395,89	17,923
396,10	19,372
396,30	14,410
396,51	12,813
396,72	19,233
396,92	12,013
397,13	17,405
397,34	12,760
397,54	17,897
397,75	15,258
397,95	13,301
398,16	15,931
398,37	17,646
398,57	13,951
398,78	20,383
398,99	21,565
399,19	21,045
399,40	23,046
399,60	14,674
399,81	18,424
400,02	23,082
400,22	19,941
400,43	14,411
400,64	19,410
400,84	16,782
401,05	22,692
401,25	25,422
401,46	20,484
401,67	25,152
401,87	22,173
402,08	16,133
402,29	17,986
402,49	28,227
402,70	24,275
402,90	18,778
403,11	19,754
403,32	21,980
403,52	20,855
403,73	24,393
403,93	24,721
404,14	28,958
404,35	20,438
404,55	18,832
404,76	24,643
404,96	23,030
405,17	27,919
405,38	29,385
405,58	23,816
405,79	23,989
405,99	28,052
406,20	24,566
406,40	23,552
406,61	23,343
406,82	26,619
407,02	27,634
407,23	25,090
407,43	23,764
407,64	27,029
407,85	21,158
408,05	16,757
408,26	35,348
408,46	27,662
408,67	23,139
408,87	25,520
409,08	27,090
409,29	32,730
409,49	34,316
409,70	26,026
409,90	31,037
410,11	29,153
410,31	31,234
410,52	24,384
410,72	28,196
410,93	31,727
411,14	28,210
411,34	27,575
411,55	31,510
411,75	32,631
411,96	30,695
412,16	28,714
412,37	29,877
412,57	31,310
412,78	28,620
412,99	30,385
413,19	31,752
413,40	31,946
413,60	24,387
413,81	28,789
414,01	28,594
414,22	28,460
414,42	30,222
414,63	27,447
414,83	33,465
415,04	39,464
415,24	31,685
415,45	29,675
415,65	32,835
415,86	29,890
416,07	30,117
416,27	34,593
416,48	38,054
416,68	41,091
416,89	28,559
417,09	32,224
417,30	37,304
417,50	33,190
417,71	36,281
417,91	35,425
418,12	33,981
418,32	32,600
418,53	31,693
418,73	32,460
418,94	33,488
419,14	38,068
419,35	32,055
419,55	33,527
419,76	35,806
419,96	33,906
420,17	31,852
420,37	33,396
420,58	41,239
420,78	35,944
420,99	32,440
421,19	37,145
421,40	37,773
421,60	43,277
421,81	34,981
422,01	34,776
422,22	37,638
422,42	39,881
422,63	39,450
422,83	33,406
423,04	40,279
423,24	47,113
423,45	35,438
423,65	36,050
423,86	42,937
424,06	41,303
424,27	32,106
424,47	35,648
424,67	35,710
424,88	39,800
425,08	34,807
425,29	42,777
425,49	34,979
425,70	35,511
425,90	40,134
426,11	35,806
426,31	41,085
426,52	39,216
426,72	33,263
426,93	32,876
427,13	40,232
427,33	38,271
427,54	37,709
427,74	40,165
427,95	47,286
428,15	38,510
428,36	36,574
428,56	34,376
428,77	40,494
428,97	40,186
429,18	37,664
429,38	35,059
429,58	40,079
429,79	44,493
429,99	36,851
430,20	32,323
430,40	40,593
430,61	35,468
430,81	35,369
431,01	39,914
431,22	43,077
431,42	39,905
431,63	33,688
431,83	36,851
432,04	42,760
432,24	41,050
432,44	39,028
432,65	37,464
432,85	39,921
433,06	45,338
433,26	40,127
433,47	38,068
433,67	38,284
433,87	41,120
434,08	34,340
434,28	39,639
434,49	37,917
434,69	46,165
434,89	36,905
435,10	37,780
435,30	45,039
435,51	36,302
435,71	40,338
435,91	40,109
436,12	43,089
436,32	41,934
436,53	39,778
436,73	41,345
436,93	41,747
437,14	38,447
437,34	41,332
437,55	36,939
437,75	41,556
437,95	41,734
438,16	39,320
438,36	38,193
438,57	36,118
438,77	37,189
438,97	40,889
439,18	41,295
439,38	36,843
439,58	38,610
439,79	37,380
439,99	36,412
440,20	46,251
440,40	40,527
440,60	40,238
440,81	38,188
441,01	44,099
441,21	40,460
441,42	38,537
441,62	41,528
441,83	38,598
442,03	40,754
442,23	39,657
442,44	36,567
442,64	39,284
442,84	36,240
443,05	38,247
443,25	34,936
443,45	38,741
443,66	40,765
443,86	34,266
444,06	39,053
444,27	36,918
444,47	41,015
444,67	36,941
444,88	42,893
445,08	40,936
445,28	38,958
445,49	36,938
445,69	34,837
445,90	39,655
446,10	46,891
446,30	38,704
446,51	35,115
446,71	46,458
446,91	46,200
447,12	49,599
447,32	40,775
447,52	41,325
447,72	40,960
447,93	38,092
448,13	36,065
448,33	48,507
448,54	45,863
448,74	32,986
448,94	40,390
449,15	44,384
449,35	46,149
449,55	39,735
449,76	45,192
449,96	42,855
450,16	41,654
450,37	37,825
450,57	39,612
450,77	36,754
450,98	40,742
451,18	43,124
451,38	36,575
451,58	41,306
451,79	40,476
451,99	39,951
452,19	36,540
452,40	45,327
452,60	35,729
452,80	38,185
453,00	40,335
453,21	40,364
453,41	46,341
453,61	41,769
453,82	42,294
454,02	33,539
454,22	47,858
454,42	40,612
454,63	33,427
454,83	37,576
455,03	42,481
455,24	41,948
455,44	38,973
455,64	39,178
455,84	37,344
456,05	37,217
456,25	41,637
456,45	42,263
456,65	36,677
456,86	38,401
457,06	36,643
457,26	46,747
457,47	41,193
457,67	40,096
457,87	36,054
458,07	41,068
458,28	44,490
458,48	44,282
458,68	34,963
458,88	41,704
459,09	38,090
459,29	41,887
459,49	36,563
459,69	42,024
459,90	41,463
460,10	37,623
460,30	39,912
460,50	37,274
460,71	44,252
460,91	34,229
461,11	39,593
461,31	35,207
461,52	44,534
461,72	37,863
461,92	38,033
462,12	49,104
462,32	35,598
462,53	37,389
462,73	37,525
462,93	38,890
463,13	43,351
463,34	37,843
463,54	39,142
463,74	38,083
463,94	39,778
464,14	38,203
464,35	33,757
464,55	47,020
464,75	46,127
464,95	37,402
465,16	36,871
465,36	43,504
465,56	38,986
465,76	37,381
465,96	33,601
466,17	38,404
466,37	34,491
466,57	40,100
466,77	38,395
466,97	37,613
467,18	43,711
467,38	38,129
467,58	40,601
467,78	40,815
467,98	40,693
468,19	41,185
468,39	35,596
468,59	41,702
468,79	37,932
468,99	36,955
469,19	34,638
469,40	42,306
469,60	34,806
469,80	35,549
470,00	39,061
470,20	42,332
470,41	34,947
470,61	38,761
470,81	39,521
471,01	34,534
471,21	35,624
471,41	35,162
471,62	37,439
471,82	34,111
472,02	36,799
472,22	38,279
472,42	37,966
472,62	39,567
472,83	36,464
473,03	41,148
473,23	34,454
473,43	40,476
473,63	41,911
473,83	37,686
474,03	37,853
474,24	42,342
474,44	37,068
474,64	34,821
474,84	35,527
475,04	37,209
475,24	36,923
475,45	37,483
475,65	33,315
475,85	38,542
476,05	30,803
476,25	34,328
476,45	34,195
476,65	43,995
476,85	37,349
477,06	37,354
477,26	34,547
477,46	37,815
477,66	38,635
477,86	36,393
478,06	34,578
478,26	46,168
478,46	38,060
478,67	39,170
478,87	34,466
479,07	34,846
479,27	37,881
479,47	32,444
479,67	30,510
479,87	32,068
480,07	38,473
480,28	33,704
480,48	34,724
480,68	36,570
480,88	41,667
481,08	36,160
481,28	37,109
481,48	39,193
481,68	34,055
481,88	33,249
482,08	34,125
482,29	40,935
482,49	33,344
482,69	35,335
482,89	35,805
483,09	39,591
483,29	35,525
483,49	34,205
483,69	34,271
483,89	32,826
484,09	32,863
484,29	31,691
484,50	33,529
484,70	35,800
484,90	35,956
485,10	33,789
485,30	36,771
485,50	38,809
485,70	36,173
485,90	34,615
486,10	29,775
486,30	32,048
486,50	35,393
486,70	34,340
486,90	35,325
487,10	36,345
487,30	35,407
487,51	33,923
487,71	32,591
487,91	31,526
488,11	36,767
488,31	31,129
488,51	36,899
488,71	32,955
488,91	36,908
489,11	30,118
489,31	30,960
489,51	34,507
489,71	34,964
489,91	31,593
490,11	30,686
490,31	34,094
490,51	35,235
490,71	31,038
490,91	31,785
491,11	35,245
491,31	35,087
491,51	30,854
491,72	32,289
491,92	34,944
492,12	35,258
492,32	32,921
492,52	35,050
492,72	33,819
492,92	32,837
493,12	36,328
493,32	30,761
493,52	27,818
493,72	30,807
493,92	31,941
494,12	34,525
494,32	35,184
494,52	32,133
494,72	31,198
494,92	31,845
495,12	34,958
495,32	35,997
495,52	30,004
495,72	32,091
495,92	34,771
496,12	34,771
496,32	29,981
496,52	32,373
496,72	33,088
496,92	34,638
497,12	30,976
497,32	34,262
497,52	33,304
497,72	34,786
497,92	32,277
498,12	29,773
498,32	30,578
498,52	32,284
498,72	28,688
498,92	28,767
499,12	34,195
499,32	28,503
499,52	32,201
499,72	30,777
499,92	33,433
500,12	33,351
500,32	32,036
500,52	29,813
500,72	34,305
500,91	33,343
501,11	29,710
501,31	26,652
501,51	33,259
501,71	35,188
501,91	33,671
502,11	30,578
502,31	30,809
502,51	31,377
502,71	29,489
502,91	30,025
503,11	28,881
503,31	31,775
503,51	25,092
503,71	26,631
503,91	32,766
504,11	29,633
504,31	30,140
504,51	29,279
504,71	35,833
504,91	30,585
505,10	27,719
505,30	29,324
505,50	30,924
505,70	24,670
505,90	27,964
506,10	27,161
506,30	29,509
506,50	29,682
506,70	34,058
506,90	26,847
507,10	29,116
507,30	29,159
507,50	28,830
507,70	30,290
507,89	31,941
508,09	28,799
508,29	28,474
508,49	28,442
508,69	28,109
508,89	28,416
509,09	26,531
509,29	26,965
509,49	32,509
509,69	32,420
509,89	27,739
510,09	26,019
510,28	29,298
510,48	26,976
510,68	26,093
510,88	28,459
511,08	28,115
511,28	28,773
511,48	26,644
511,68	25,055
511,88	22,574
512,07	26,222
512,27	28,621
512,47	24,394
512,67	25,639
512,87	24,972
513,07	26,023
513,27	21,807
513,47	26,085
513,67	23,339
513,86	25,756
514,06	22,901
514,26	24,893
514,46	30,371
514,66	27,165
514,86	24,904
515,06	31,176
515,26	30,360
515,45	24,717
515,65	24,547
515,85	25,339
516,05	22,914
516,25	24,113
516,45	26,722
516,65	24,758
516,84	26,157
517,04	28,746
517,24	23,008
517,44	26,332
517,64	26,632
517,84	26,028
518,04	27,959
518,23	26,752
518,43	28,338
518,63	25,144
518,83	23,674
519,03	24,653
519,23	24,921
519,42	23,852
519,62	25,689
519,82	25,757
520,02	25,141
520,22	23,174
520,42	22,309
520,61	25,860
520,81	25,905
521,01	29,573
521,21	19,966
521,41	23,345
521,61	25,880
521,80	20,939
522,00	24,933
522,20	26,157
522,40	24,915
522,60	24,019
522,79	21,116
522,99	26,826
523,19	19,503
523,39	25,665
523,59	23,609
523,78	27,727
523,98	20,958
524,18	23,405
524,38	22,310
524,58	24,120
524,77	28,339
524,97	25,039
525,17	23,573
525,37	24,393
525,57	28,661
525,76	22,839
525,96	23,436
526,16	21,681
526,36	21,459
526,56	23,484
526,75	21,160
526,95	24,204
527,15	23,540
527,35	24,152
527,55	18,845
527,74	25,425
527,94	21,080
528,14	19,736
528,34	23,592
528,53	20,980
528,73	24,871
528,93	23,015
529,13	21,915
529,32	20,529
529,52	24,806
529,72	19,149
529,92	19,597
530,12	19,957
530,31	21,455
530,51	21,441
530,71	22,104
530,91	27,127
531,10	19,082
531,30	21,186
531,50	17,217
531,70	23,243
531,89	21,638
532,09	20,231
532,29	18,617
532,49	22,232
532,68	19,652
532,88	18,079
533,08	19,247
533,28	20,087
533,47	19,684
533,67	22,100
533,87	20,729
534,06	27,768
534,26	22,425
534,46	18,087
534,66	20,448
534,85	20,448
535,05	16,723
535,25	19,826
535,45	18,971
535,64	22,037
535,84	21,937
536,04	17,088
536,23	20,161
536,43	25,653
536,63	21,040
536,83	20,627
537,02	17,978
537,22	18,263
537,42	18,972
537,61	19,530
537,81	21,788
538,01	21,852
538,20	24,018
538,40	17,394
538,60	19,000
538,80	20,996
538,99	22,480
539,19	18,646
539,39	18,795
539,58	21,590
539,78	19,979
539,98	15,349
540,17	18,020
540,37	19,998
540,57	20,190
540,76	19,289
540,96	16,241
541,16	21,516
541,36	19,362
541,55	15,517
541,75	18,685
541,95	17,481
542,14	17,675
542,34	16,154
542,54	16,744
542,73	20,109
542,93	19,034
543,13	16,658
543,32	16,716
543,52	20,068
543,72	17,159
543,91	17,517
544,11	16,111
544,31	16,567
544,50	17,373
544,70	16,938
544,89	17,532
545,09	20,978
545,29	16,934
545,48	18,454
545,68	16,665
545,88	19,697
546,07	15,516
546,27	17,241
546,47	17,507
546,66	19,441
546,86	20,270
547,06	18,114
547,25	16,734
547,45	19,156
547,64	20,041
547,84	22,476
548,04	17,599
548,23	21,053
548,43	20,080
548,63	21,056
548,82	19,390
549,02	17,440
549,21	16,900
549,41	18,384
549,61	17,323
549,80	19,033
550,00	18,274
550,20	15,490
550,39	18,747
550,59	17,984
550,78	19,925
550,98	15,943
551,18	19,053
551,37	19,712
551,57	18,242
551,76	17,877
551,96	17,074
552,16	16,836
552,35	19,704
552,55	17,833
552,74	18,446
552,94	20,078
553,14	17,823
553,33	17,809
553,53	18,328
553,72	17,651
553,92	19,311
554,12	18,944
554,31	19,081
554,51	18,542
554,70	15,789
554,90	18,839
555,09	19,925
555,29	17,868
555,49	19,402
555,68	18,962
555,88	16,802
556,07	18,014
556,27	21,642
556,46	18,501
556,66	13,563
556,86	21,451
557,05	18,492
557,25	17,288
557,44	17,091
557,64	17,683
557,83	18,722
558,03	16,626
558,22	15,984
558,42	18,251
558,62	19,250
558,81	17,638
559,01	17,274
559,20	20,038
559,40	14,102
559,59	16,173
559,79	14,851
559,98	18,285
560,18	20,708
560,37	16,135
560,57	20,755
560,76	17,001
560,96	17,856
561,16	18,845
561,35	16,475
561,55	21,648
561,74	17,383
561,94	17,985
562,13	17,265
562,33	19,085
562,52	18,325
562,72	16,341
562,91	16,587
563,11	18,298
563,30	19,960
563,50	17,322
563,69	16,523
563,89	16,953
564,08	18,351
564,28	16,249
564,47	16,867
564,67	14,729
564,86	19,191
565,06	18,087
565,25	16,817
565,45	18,013
565,64	22,525
565,84	17,209
566,03	14,936
566,23	18,936
566,42	18,537
566,62	18,164
566,81	17,957
567,01	17,088
567,20	19,187
567,40	16,045
567,59	16,200
567,79	20,638
567,98	22,109
568,18	18,393
568,37	17,718
568,57	16,327
568,76	18,953
568,96	18,364
569,15	16,858
569,35	18,948
569,54	22,155
569,73	18,788
569,93	14,964
570,12	17,736
570,32	20,257
570,51	19,218
570,71	19,956
570,90	20,790
571,10	17,241
571,29	17,998
571,49	16,824
571,68	19,602
571,87	16,734
572,07	17,272
572,26	14,710
572,46	19,804
572,65	18,114
572,85	15,204
573,04	17,990
573,24	17,890
573,43	21,668
573,62	19,284
573,82	18,205
574,01	19,468
574,21	17,292
574,40	15,689
574,60	16,730
574,79	20,176
574,98	18,255
575,18	20,346
575,37	15,751
575,57	20,172
575,76	20,960
575,96	18,960
576,15	17,050
576,34	19,215
576,54	19,880
576,73	19,776
576,93	19,580
577,12	21,010
577,31	17,993
577,51	17,944
577,70	18,454
577,90	20,897
578,09	19,840
578,28	18,468
578,48	19,331
578,67	22,732
578,87	21,048
579,06	18,451
579,25	19,537
579,45	20,936
579,64	19,377
579,84	17,969
580,03	19,002
580,22	22,104
580,42	19,531
580,61	19,828
580,81	19,685
581,00	22,463
581,19	21,361
581,39	19,261
581,58	20,636
581,77	19,917
581,97	23,473
582,16	19,996
582,35	19,311
582,55	21,070
582,74	23,243
582,94	19,521
583,13	18,568
583,32	22,418
583,52	22,344
583,71	21,894
583,90	21,228
584,10	21,904
584,29	22,580
584,48	20,398
584,68	22,362
584,87	24,947
585,06	22,336
585,26	21,395
585,45	20,981
585,65	25,149
585,84	23,605
586,03	21,636
586,23	21,597
586,42	23,461
586,61	25,340
586,81	21,669
587,00	21,722
587,19	22,209
587,39	25,869
587,58	24,399
587,77	24,561
587,97	22,117
588,16	25,056
588,35	23,140
588,54	23,662
588,74	22,915
588,93	28,168
589,12	25,244
589,32	24,539
589,51	24,537
589,70	22,392
589,90	23,120
590,09	24,388
590,28	28,382
590,48	23,211
590,67	24,569
590,86	26,469
591,06	25,446
591,25	27,653
591,44	25,354
591,63	26,044
591,83	26,768
592,02	25,834
592,21	25,430
592,41	24,896
592,60	28,437
592,79	26,473
592,98	28,309
593,18	26,109
593,37	26,358
593,56	29,459
593,76	27,353
593,95	26,949
594,14	27,848
594,33	29,911
594,53	27,271
594,72	27,018
594,91	30,893
595,10	29,852
595,30	28,032
595,49	27,282
595,68	30,478
595,88	29,366
596,07	28,305
596,26	28,194
596,45	29,178
596,65	28,559
596,84	29,697
597,03	27,516
597,22	29,901
597,42	32,475
597,61	30,111
597,80	30,405
597,99	29,423
598,19	30,960
598,38	29,424
598,57	29,674
598,76	31,858
598,95	33,369
599,15	31,370
599,34	31,222
599,53	32,419
599,72	31,070
599,92	31,630
600,11	31,930
600,30	32,127
600,49	33,824
600,69	29,225
600,88	33,036
601,07	33,185
601,26	32,003
601,45	32,770
601,65	30,903
601,84	34,192
602,03	33,076
602,22	34,578
602,42	34,366
602,61	31,677
602,80	33,022
602,99	33,009
603,18	32,058
603,38	35,048
603,57	33,709
603,76	32,841
603,95	31,978
604,14	34,631
604,34	35,007
604,53	35,127
604,72	34,518
604,91	34,671
605,10	35,442
605,29	36,354
605,49	33,220
605,68	35,337
605,87	35,989
606,06	34,314
606,25	34,138
606,45	37,069
606,64	36,009
606,83	35,884
607,02	34,362
607,21	37,562
607,40	37,187
607,60	34,137
607,79	34,945
607,98	34,125
608,17	36,754
608,36	36,217
608,55	37,932
608,75	38,594
608,94	37,842
609,13	35,715
609,32	34,780
609,51	39,031
609,70	35,702
609,89	37,500
610,09	36,856
610,28	39,909
610,47	37,539
610,66	37,557
610,85	35,848
611,04	40,321
611,23	37,579
611,43	37,870
611,62	38,123
611,81	37,791
612,00	39,388
612,19	37,014
612,38	39,239
612,57	39,012
612,77	38,941
612,96	38,595
613,15	38,647
613,34	38,974
613,53	38,857
613,72	38,877
613,91	38,834
614,10	39,439
614,29	40,913
614,49	37,306
614,68	38,061
614,87	41,195
615,06	41,480
615,25	36,939
615,44	40,587
615,63	39,764
615,82	39,325
616,01	39,192
616,21	38,663
616,40	41,993
616,59	43,275
616,78	42,000
616,97	41,305
617,16	40,649
617,35	41,702
617,54	41,206
617,73	42,418
617,92	41,451
618,11	41,884
618,31	39,644
618,50	41,596
618,69	42,724
618,88	40,762
619,07	38,878
619,26	38,500
619,45	39,480
619,64	39,808
619,83	39,735
620,02	38,754
620,21	43,944
620,40	41,303
620,59	41,794
620,78	40,842
620,97	43,030
621,17	43,433
621,36	40,326
621,55	41,097
621,74	42,236
621,93	42,085
622,12	41,811
622,31	40,424
622,50	42,729
622,69	45,731
622,88	42,625
623,07	43,388
623,26	44,122
623,45	45,735
623,64	42,751
623,83	41,678
624,02	44,355
624,21	44,881
624,40	43,418
624,59	41,030
624,78	42,472
624,97	44,694
625,16	41,904
625,35	39,817
625,54	41,268
625,73	41,840
625,92	43,808
626,12	45,706
626,31	47,136
626,50	44,855
626,69	43,769
626,88	41,340
627,07	43,919
627,26	43,869
627,45	42,525
627,64	42,911
627,83	43,375
628,02	42,378
628,21	42,107
628,40	43,975
628,59	44,700
628,78	43,307
628,97	41,415
629,16	41,020
629,35	42,744
629,54	46,071
629,73	44,455
629,92	40,548
630,10	42,774
630,29	44,422
630,48	43,061
630,67	41,781
630,86	44,686
631,05	43,570
631,24	45,082
631,43	41,426
631,62	44,201
631,81	42,037
632,00	44,134
632,19	41,034
632,38	44,419
632,57	46,579
632,76	43,810
632,95	44,296
633,14	45,379
633,33	43,536
633,52	43,742
633,71	44,889
633,90	41,866
634,09	43,144
634,28	43,494
634,47	42,431
634,66	44,037
634,85	42,373
635,04	45,936
635,22	42,362
635,41	44,042
635,60	45,540
635,79	44,174
635,98	42,690
636,17	44,993
636,36	42,533
636,55	44,048
636,74	42,669
636,93	44,666
637,12	44,712
637,31	43,096
637,50	41,212
637,69	46,420
637,87	44,824
638,06	45,017
638,25	43,391
638,44	45,877
638,63	42,310
638,82	43,825
639,01	42,607
639,20	45,097
639,39	45,108
639,58	41,453
639,77	46,103
639,95	44,244
640,14	45,722
640,33	44,304
640,52	42,683
640,71	45,811
640,90	45,082
641,09	46,629
641,28	42,698
641,47	46,492
641,66	44,585
641,84	44,022
642,03	41,852
642,22	44,732
642,41	46,795
642,60	43,982
642,79	44,055
642,98	45,838
643,17	43,928
643,35	42,504
643,54	44,143
643,73	44,218
643,92	46,112
644,11	44,467
644,30	42,597
644,49	47,144
644,67	43,746
644,86	42,135
645,05	46,508
645,24	45,152
645,43	42,544
645,62	45,787
645,81	44,193
645,99	46,009
646,18	47,180
646,37	44,052
646,56	43,477
646,75	47,755
646,94	46,933
647,13	44,394
647,31	42,602
647,50	45,858
647,69	48,302
647,88	46,296
648,07	45,052
648,26	50,214
648,44	43,863
648,63	45,426
648,82	45,608
649,01	48,750
649,20	43,459
649,38	46,208
649,57	46,309
649,76	42,796
649,95	46,355
650,14	44,177
650,33	44,591
650,51	45,067
650,70	47,562
650,89	46,203
651,08	46,183
651,27	46,249
651,45	44,324
651,64	43,601
651,83	47,005
652,02	44,901
652,21	46,949
652,39	46,447
652,58	46,794
652,77	46,592
652,96	46,786
653,15	44,878
653,33	45,923
653,52	47,375
653,71	48,459
653,90	47,216
654,09	47,001
654,27	47,854
654,46	48,997
654,65	47,015
654,84	47,855
655,02	49,023
655,21	47,489
655,40	48,369
655,59	48,037
655,77	48,405
655,96	47,884
656,15	48,350
656,34	47,882
656,53	46,034
656,71	47,762
656,90	47,977
657,09	48,587
657,28	47,607
657,46	47,442
657,65	48,013
657,84	45,360
658,03	47,143
658,21	46,317
658,40	45,768
658,59	45,943
658,78	46,927
658,96	45,263
659,15	45,791
659,34	45,031
659,52	45,981
659,71	47,453
659,90	44,960
660,09	45,706
660,27	45,588
660,46	46,997
660,65	44,959
660,84	42,904
661,02	45,208
661,21	46,487
661,40	45,008
661,58	45,254
661,77	45,842
661,96	43,867
662,15	45,294
662,33	44,437
662,52	45,073
662,71	46,419
662,89	44,031
663,08	44,142
663,27	45,490
663,45	45,181
663,64	44,579
663,83	43,418
664,02	44,003
664,20	46,418
664,39	43,978
664,58	45,788
664,76	45,587
664,95	46,083
665,14	44,571
665,32	43,651
665,51	47,019
665,70	46,602
665,88	46,023
666,07	44,526
666,26	47,569
666,44	46,088
666,63	43,099
666,82	43,902
667,00	45,736
667,19	43,113
667,38	46,303
667,56	46,131
667,75	45,706
667,94	46,181
668,12	43,547
668,31	45,377
668,50	44,638
668,68	46,883
668,87	44,763
669,06	46,565
669,24	46,643
669,43	44,076
669,62	42,943
669,80	43,531
669,99	44,727
670,18	45,734
670,36	42,965
670,55	45,596
670,74	45,571
670,92	43,027
671,11	44,928
671,29	44,459
671,48	46,044
671,67	45,984
671,85	44,754
672,04	43,178
672,23	43,083
672,41	44,870
672,60	44,638
672,78	43,796
672,97	45,523
673,16	46,818
673,34	44,758
673,53	42,860
673,71	45,367
673,90	46,095
674,09	44,996
674,27	44,124
674,46	44,794
674,64	44,404
674,83	44,856
675,02	41,739
675,20	44,472
675,39	43,941
675,57	45,207
675,76	43,005
675,95	47,321
676,13	44,768
676,32	46,239
676,50	44,881
676,69	43,194
676,88	45,186
677,06	44,422
677,25	45,510
677,43	48,551
677,62	47,017
677,80	44,152
677,99	45,105
678,18	45,861
678,36	48,483
678,55	44,287
678,73	43,767
678,92	45,529
679,10	43,813
679,29	44,504
679,48	44,035
679,66	46,150
679,85	45,471
680,03	44,186
680,22	45,283
680,40	45,784
680,59	45,193
680,77	44,293
680,96	45,973
681,15	44,074
681,33	47,182
681,52	44,193
681,70	45,948
681,89	48,104
682,07	45,751
682,26	44,114
682,44	44,081
682,63	47,865
682,81	47,104
683,00	47,227
683,18	43,486
683,37	48,145
683,55	47,029
683,74	46,284
683,92	51,917
684,11	47,960
684,29	46,581
684,48	42,076
684,67	45,628
684,85	46,080
685,04	47,001
685,22	46,226
685,41	43,388
685,59	47,124
685,78	43,373
685,96	44,245
686,15	44,556
686,33	42,493
686,52	46,384
686,70	43,505
686,89	43,437
687,07	46,738
687,26	47,331
687,44	44,471
687,62	45,133
687,81	47,560
687,99	45,587
688,18	44,710
688,36	43,857
688,55	47,020
688,73	46,353
688,92	42,588
689,10	46,469
689,29	45,729
689,47	46,649
689,66	44,728
689,84	43,488
690,03	49,023
690,21	44,485
690,40	44,706
690,58	42,786
690,76	42,954
690,95	45,526
691,13	43,158
691,32	45,096
691,50	45,859
691,69	45,767
691,87	43,415
692,06	44,093
692,24	42,858
692,43	45,988
692,61	43,857
692,79	43,345
692,98	43,142
693,16	46,106
693,35	42,633
693,53	46,112
693,72	45,104
693,90	47,247
694,08	42,755
694,27	42,940
694,45	48,001
694,64	46,558
694,82	45,557
695,01	43,767
695,19	42,756
695,37	43,570
695,56	43,483
695,74	44,883
695,93	45,762
696,11	44,373
696,29	44,280
696,48	45,721
696,66	46,409
696,85	44,871
697,03	44,603
697,21	46,981
697,40	45,239
697,58	46,165
697,77	44,493
697,95	45,944
698,13	47,702
698,32	44,620
698,50	44,408
698,69	43,591
698,87	45,465
699,05	45,050
699,24	42,575
699,42	43,985
699,60	42,588
699,79	44,139
699,97	43,382
700,16	42,870
700,34	47,257
700,52	45,092
700,71	43,403
700,89	42,446
701,07	46,343
701,26	46,064
701,44	45,110
701,63	41,909
701,81	46,154
701,99	46,947
702,18	44,687
702,36	41,309
702,54	44,278
702,73	44,374
702,91	42,128
703,09	42,749
703,28	44,322
703,46	44,938
703,64	44,743
703,83	44,501
704,01	45,023
704,19	45,037
704,38	43,177
704,56	42,067
704,74	46,153
704,93	44,796
705,11	44,291
705,29	45,448
705,48	51,998
705,66	46,108
705,84	43,932
706,03	41,446
706,21	46,523
706,39	44,361
706,58	44,711
706,76	44,277
706,94	46,520
707,12	46,455
707,31	43,906
707,49	42,660
707,67	46,030
707,86	47,439
708,04	42,717
708,22	42,538
708,41	44,837
708,59	45,610
708,77	42,868
708,95	44,708
709,14	48,689
709,32	45,592
709,50	43,608
709,69	43,161
709,87	44,930
710,05	43,755
710,23	42,570
710,42	42,246
710,60	45,811
710,78	46,600
710,97	44,774
711,15	44,312
711,33	46,070
711,51	43,638
711,70	42,204
711,88	43,319
712,06	46,855
712,24	45,891
712,43	44,805
712,61	44,452
712,79	45,751
712,97	44,025
713,16	45,071
713,34	43,044
713,52	46,911
713,70	45,817
713,89	43,536
714,07	44,670
714,25	45,574
714,43	47,139
714,62	42,465
714,80	44,913
714,98	41,572
715,16	44,731
715,35	42,390
715,53	41,932
715,71	46,108
715,89	47,100
716,07	44,423
716,26	48,077
716,44	46,410
716,62	46,111
716,80	43,620
716,99	44,951
717,17	47,636
717,35	44,423
717,53	43,817
717,71	41,430
717,90	45,348
718,08	45,391
718,26	40,210
718,44	46,479
718,62	46,759
718,81	44,992
718,99	42,970
719,17	44,138
719,35	44,270
719,53	42,340
719,72	42,395
719,90	43,842
720,08	43,517
720,26	46,238
720,44	43,011
720,62	43,533
720,81	46,946
720,99	47,752
721,17	43,529
721,35	44,107
721,53	45,408
721,72	46,821
721,90	42,812
722,08	44,396
722,26	46,272
722,44	45,923
722,62	42,789
722,81	43,370
722,99	43,422
723,17	43,461
723,35	44,693
723,53	44,620
723,71	46,771
723,89	47,225
724,08	40,061
724,26	44,079
724,44	45,666
724,62	45,554
724,80	44,212
724,98	45,672
725,16	48,489
725,35	44,688
725,53	43,997
725,71	42,310
725,89	44,178
726,07	47,755
726,25	46,934
726,43	42,785
726,61	45,077
726,80	45,772
726,98	43,786
727,16	44,987
727,34	45,809
727,52	44,787
727,70	42,552
727,88	44,662
728,06	41,561
728,25	42,191
728,43	46,038
728,61	44,458
728,79	44,358
728,97	45,243
729,15	44,707
729,33	43,712
729,51	45,157
729,69	46,524
729,87	43,599
730,06	45,513
730,24	44,624
730,42	48,365
730,60	43,445
730,78	44,589
730,96	44,983
731,14	45,147
731,32	44,785
731,50	43,103
731,68	45,237
731,86	45,092
732,04	46,041
732,22	42,787
732,41	48,415
732,59	45,225
732,77	48,036
732,95	45,723
733,13	46,134
733,31	45,325
733,49	46,487
733,67	45,577
733,85	44,630
734,03	44,650
734,21	44,066
734,39	45,949
734,57	46,309
734,75	46,533
734,93	42,591
735,11	45,821
735,29	43,374
735,47	46,338
735,65	44,685
735,84	43,862
736,02	45,333
736,20	48,117
736,38	44,581
736,56	45,233
736,74	44,673
736,92	42,873
737,10	43,489
737,28	44,389
737,46	46,598
737,64	45,099
737,82	44,734
738,00	45,841
738,18	46,387
738,36	45,227
738,54	43,307
738,72	42,981
738,90	46,118
739,08	47,366
739,26	42,147
739,44	44,535
739,62	47,578
739,80	43,885
739,98	43,188
740,16	46,076
740,34	44,793
740,52	47,356
740,70	43,613
740,88	42,476
741,06	44,175
741,24	45,445
741,42	44,891
741,60	41,818
741,78	46,702
741,96	43,189
742,14	43,954
742,32	42,359
742,50	44,707
742,68	46,575
742,86	42,921
743,04	42,354
743,21	45,651
743,39	45,755
743,57	43,334
743,75	41,940
743,93	42,430
744,11	41,654
744,29	41,950
744,47	45,717
744,65	44,209
744,83	44,744
745,01	42,087
745,19	45,493
745,37	48,812
745,55	45,007
745,73	45,593
745,91	41,275
746,09	43,494
746,27	45,287
746,45	42,115
746,62	42,894
746,80	43,949
746,98	44,731
747,16	43,017
747,34	42,764
747,52	45,472
747,70	46,406
747,88	43,636
748,06	42,744
748,24	45,773
748,42	47,001
748,60	42,551
748,78	41,978
748,95	47,118
749,13	48,042
749,31	42,326
749,49	45,557
749,67	46,625
749,85	46,778
750,03	45,221
750,21	44,207
750,39	45,243
750,57	44,143
750,74	45,992
750,92	43,440
751,10	47,949
751,28	42,784
751,46	43,531
751,64	44,521
751,82	46,530
752,00	44,712
752,17	42,524
752,35	41,680
752,53	44,416
752,71	44,338
752,89	44,283
753,07	43,760
753,25	45,305
753,43	42,645
753,60	46,752
753,78	42,509
753,96	47,550
754,14	44,956
754,32	44,562
754,50	44,735
754,68	48,484
754,85	45,656
755,03	43,998
755,21	44,750
755,39	50,440
755,57	45,345
755,75	43,774
755,92	42,904
756,10	45,647
756,28	46,957
756,46	41,666
756,64	44,469
756,82	45,834
756,99	44,832
757,17	42,187
757,35	43,259
757,53	48,280
757,71	49,225
757,89	44,397
758,06	44,486
758,24	46,761
758,42	45,844
758,60	43,335
758,78	44,231
758,95	46,291
759,13	45,538
759,31	45,075
759,49	43,264
759,67	43,845
759,84	46,428
760,02	45,648
760,20	45,047
760,38	46,583
760,56	42,637
760,73	43,817
760,91	45,221
761,09	47,537
761,27	44,931
761,45	45,643
761,62	42,711
761,80	44,304
761,98	46,813
762,16	46,160
762,33	43,949
762,51	48,209
762,69	42,421
762,87	42,816
763,05	44,668
763,22	43,434
763,40	44,498
763,58	43,392
763,76	45,080
763,93	47,857
764,11	45,565
764,29	42,751
764,47	44,356
764,64	49,278
764,82	48,405
765,00	43,143
765,18	41,080
765,35	44,799
765,53	45,027
765,71	44,367
765,89	43,704
766,06	43,084
766,24	43,742
766,42	43,464
766,60	43,748
766,77	44,499
766,95	43,924
767,13	44,644
767,30	44,000
767,48	44,698
767,66	44,141
767,84	42,661
768,01	44,173
768,19	46,639
768,37	45,153
768,54	42,389
768,72	43,978
768,90	45,607
769,08	45,497
769,25	46,272
769,43	44,579
769,61	42,053
769,78	45,455
769,96	45,621
770,14	45,314
770,31	48,439
770,49	46,003
770,67	46,577
770,85	42,713
771,02	44,512
771,20	43,911
771,38	45,519
771,55	43,994
771,73	44,474
771,91	43,490
772,08	45,287
772,26	43,674
772,44	45,653
772,61	45,752
772,79	44,088
772,97	43,184
773,14	42,666
773,32	44,618
773,50	43,940
773,67	43,674
773,85	47,283
774,03	46,701
774,20	45,143
774,38	44,976
774,56	44,492
774,73	42,822
774,91	43,382
775,09	45,306
775,26	46,633
775,44	48,800
775,61	44,758
775,79	44,202
775,97	45,732
776,14	43,816
776,32	44,369
776,50	46,151
776,67	46,815
776,85	46,039
777,03	43,242
777,20	43,752
777,38	45,999
777,55	46,910
777,73	42,200
777,91	43,478
778,08	45,115
778,26	45,619
778,43	47,440
778,61	41,183
778,79	43,003
778,96	41,762
779,14	45,040
779,32	44,741
779,49	45,950
779,67	49,792
779,84	44,257
780,02	45,066
780,20	41,808
780,37	45,804
780,55	43,218
780,72	47,693
780,90	44,560
781,07	45,288
781,25	45,041
781,43	44,188
781,60	44,432
781,78	47,189
781,95	43,479
782,13	45,143
782,30	50,024
782,48	47,638
782,66	44,882
782,83	42,278
783,01	51,152
783,18	47,389
783,36	45,793
783,53	45,610
783,71	44,685
783,89	46,139
784,06	48,543
784,24	46,805
784,41	46,937
784,59	45,358
784,76	43,954
784,94	44,638
785,11	45,246
785,29	45,787
785,46	45,564
785,64	45,534
785,82	45,777
785,99	49,135
786,17	44,180
786,34	44,612
786,52	47,792
786,69	50,120
786,87	43,298
787,04	42,456
787,22	45,798
787,39	45,775
787,57	49,283
787,74	46,127
787,92	48,216
788,09	47,606
788,27	44,532
788,44	43,880
788,62	49,678
788,79	47,078
788,97	46,904
789,14	42,742
789,32	45,598
789,49	44,673
789,67	44,767
789,84	49,371
790,02	48,516
790,19	47,016
790,37	46,747
790,54	44,931
790,72	50,443
790,89	49,398
791,07	48,024
791,24	43,114
791,42	48,393
791,59	48,329
791,77	46,223
791,94	42,123
792,12	45,353
792,29	49,646
792,47	47,598
792,64	49,122
792,81	51,011
792,99	46,447
793,16	46,713
793,34	47,140
793,51	48,623
793,69	51,077
793,86	46,945
794,04	46,970
794,21	48,210
794,39	43,056
794,56	47,396
794,73	46,228
794,91	49,799
795,08	49,675
795,26	43,822
795,43	45,940
795,61	50,703
795,78	49,196
795,95	49,436
796,13	48,386
796,30	47,758
796,48	42,688
796,65	45,016
796,83	48,138
797,00	50,003
797,17	45,204
797,35	44,855
797,52	48,999
797,70	51,938
797,87	49,946
798,04	44,585
798,22	44,710
798,39	45,842
798,57	44,848
798,74	44,735
798,91	43,151
799,09	47,277
799,26	50,490
799,44	45,500
799,61	47,004
799,78	46,604
799,96	48,409
800,13	45,889
800,31	47,426
800,48	50,034
800,65	51,830
800,83	46,168
801,00	46,300
801,17	46,934
801,35	50,520
801,52	46,095
801,70	44,304
801,87	48,430
802,04	50,392
802,22	45,858
802,39	46,143
802,56	54,405
802,74	46,063
802,91	43,127
803,08	43,321
803,26	48,207
803,43	53,508
803,61	44,201
803,78	45,544
803,95	49,374
804,13	50,099
804,30	45,599
804,47	49,711
804,65	49,376
804,82	50,885
804,99	48,374
805,17	47,203
805,34	53,745
805,51	51,484
805,69	45,312
805,86	45,641
806,03	56,378
806,21	50,461
806,38	48,728
806,55	51,360
806,72	53,315
806,90	55,112
807,07	45,018
807,24	47,264
807,42	48,183
807,59	47,812
807,76	42,683
807,94	49,969
808,11	53,178
808,28	52,532
808,45	50,671
808,63	50,123
808,80	52,667
808,97	48,732
809,15	45,250
809,32	50,004
809,49	44,322
809,67	48,803
809,84	50,680
810,01	53,995
810,18	59,106
810,36	54,234
810,53	46,028
810,70	48,812
810,87	51,772
811,05	47,172
811,22	52,128
811,39	49,190
811,57	56,594
811,74	53,867
811,91	43,669
812,08	48,968
812,26	53,367
812,43	46,013
812,60	50,955
812,77	47,539
812,95	53,587
813,12	52,274
813,29	45,774
813,46	51,001
813,64	50,718
813,81	53,865
813,98	45,129
814,15	51,346
814,32	56,209
814,50	50,894
814,67	55,185
814,84	50,486
815,01	53,874
815,19	43,153
815,36	41,285
815,53	47,828
815,70	50,834
815,87	42,512
816,05	42,343
816,22	50,043
816,39	54,481
816,56	56,552
816,74	51,928
816,91	46,523
817,08	61,534
817,25	54,954
817,42	51,800
817,60	51,102
817,77	54,515
817,94	51,504
818,11	49,963
818,28	49,077
818,45	51,252
818,63	51,014
818,80	49,133
818,97	49,020
819,14	54,208
819,31	56,160
819,49	51,613
819,66	45,135
819,83	53,952
820,00	57,457
820,17	46,888
820,34	48,924
820,52	55,904
820,69	53,570
820,86	49,404
821,03	56,630
821,20	55,387
821,37	56,996
821,55	41,940
821,72	52,042
821,89	52,344
822,06	61,763
822,23	43,692
822,40	46,293
822,57	54,785
822,75	59,643
822,92	39,104
823,09	57,465
823,26	51,493
823,43	56,897
823,60	47,196
823,77	50,736
823,94	58,794
824,12	58,931
824,29	49,190
824,46	47,151
824,63	65,939
824,80	55,218
824,97	47,624
825,14	50,709
825,31	59,555
825,49	54,017
825,66	48,651
825,83	52,814
826,00	59,716
826,17	64,723
826,34	50,302
826,51	47,553
826,68	48,790
826,85	54,281
827,02	51,520
827,20	42,359
827,37	50,696
827,54	54,676
827,71	56,601
827,88	52,621
828,05	61,049
828,22	50,235
828,39	53,711
828,56	52,577
828,73	58,024
828,90	56,298
829,07	53,575
829,25	47,733
829,42	54,940
829,59	49,978
829,76	53,978
829,93	52,168
830,10	54,749
830,27	52,156
830,44	55,296
830,61	51,256
830,78	48,811
830,95	58,022
831,12	51,247
831,29	52,555
831,46	50,315
831,63	44,327
831,80	48,423
831,97	50,674
832,14	65,073
832,31	73,146
832,48	49,276
832,65	54,420
832,83	54,475
833,00	60,844
833,17	45,381
833,34	50,271
833,51	63,547
833,68	63,976
833,85	55,425
834,02	51,339
834,19	53,595
834,36	63,019
834,53	45,283
834,70	51,791
834,87	69,430
835,04	56,940
835,21	52,501
835,38	50,701
835,55	54,923
835,72	69,406
835,89	55,310
836,06	58,928
836,23	68,893
836,40	43,814
836,57	47,233
836,74	57,945
836,91	56,480
837,08	65,256
837,25	56,099
837,42	46,731
837,59	48,192
837,76	56,050
837,93	55,197
838,09	48,501
838,26	61,568
838,43	65,137
838,60	48,558
838,77	55,886
838,94	63,909
839,11	43,482
839,28	43,134
839,45	54,649
839,62	56,066
839,79	53,327
839,96	55,221
840,13	67,099
840,30	57,229
840,47	49,007
840,64	56,697
840,81	51,532
840,98	49,240
841,15	72,751
841,32	45,147
841,48	60,946
841,65	62,535
841,82	55,730
841,99	47,771
842,16	49,362
842,33	60,313
842,50	61,658
842,67	44,538
842,84	58,182
843,01	60,959
843,18	59,902
843,35	50,873
843,52	50,234
843,68	68,851
843,85	57,871
844,02	55,783
844,19	53,588
844,36	68,579
844,53	73,900
844,70	52,078
844,87	65,597
845,04	64,207
845,21	48,207
845,37	62,200
845,54	54,855
845,71	54,296
845,88	84,895
846,05	49,682
846,22	48,197
846,39	67,480
846,56	66,936
846,72	46,682
846,89	58,284
847,06	82,891
847,23	74,256
847,40	35,172
847,57	50,898
847,74	60,659
847,90	75,475
848,07	55,982
848,24	60,525
848,41	68,852
848,58	82,013
848,75	56,031
848,92	49,671
849,08	58,025
849,25	62,282
849,42	37,290
849,59	63,457
849,76	56,333
849,93	59,953
850,09	56,563
850,26	45,993
850,43	74,942
850,60	55,062
850,77	50,813
850,94	56,532
851,10	67,799
851,27	56,976
851,44	57,448
851,61	46,643
851,78	78,223
851,95	78,732
852,11	43,253
852,28	64,583
852,45	64,950
852,62	71,300
852,79	57,938
852,95	58,891
853,12	76,072
853,29	58,701
853,46	60,438
853,63	63,657
853,79	52,851
853,96	67,150
854,13	69,913
854,30	51,421
854,46	93,855
854,63	71,488
854,80	58,469
854,97	50,959
855,14	89,962
855,30	79,401
855,47	53,300
855,64	46,272
855,81	60,164
855,97	80,323
856,14	59,225
856,31	40,254
856,48	67,774
856,65	84,410
856,81	53,267
856,98	46,833
857,15	45,841
857,32	63,364
857,48	54,714
857,65	81,154
857,82	67,588
857,99	77,754
858,15	51,709
858,32	51,578
858,49	64,573
858,65	81,561
858,82	56,378
858,99	56,429
859,16	75,285
859,32	72,926
859,49	53,151
859,66	53,135
859,83	67,693
859,99	49,671
860,16	66,533
860,33	53,955
860,49	87,831
860,66	75,605
860,83	64,755
861,00	60,742
861,16	87,745
861,33	71,143
861,50	48,085
861,66	61,161
861,83	79,026
862,00	80,244
862,16	56,679
862,33	57,005
862,50	137,046
862,67	74,083
862,83	50,425
863,00	78,821
863,17	98,819
863,33	72,664
863,50	29,707
863,67	65,434
863,83	73,160
864,00	90,876
864,17	48,583
864,33	61,691
864,50	67,725
864,67	78,847
864,83	46,961
865,00	67,791
865,17	65,510
865,33	91,560
865,50	46,708
865,67	56,020
865,83	78,875
866,00	127,569
866,17	65,067
866,33	88,392
866,50	93,683
866,66	72,558
866,83	83,241
867,00	87,174
867,16	79,649
867,33	130,396
867,50	48,654
867,66	68,514
867,83	101,511
868,00	97,707
868,16	59,414
868,33	45,905
868,49	81,463
868,66	87,791
868,83	68,345
868,99	86,365
869,16	108,720
869,32	120,260
869,49	78,593
869,66	60,459
869,82	94,805
869,99	108,110
870,15	39,446
870,32	76,630
870,49	109,803
870,65	143,652
870,82	77,881
870,98	68,319
871,15	131,413
871,32	91,808
871,48	16,930
871,65	48,761
871,81	79,449
871,98	53,773
872,15	47,730
872,31	62,019
872,48	125,746
872,64	82,189
872,81	74,390
872,97	64,943
873,14	130,760
873,31	138,840
873,47	77,722
873,64	90,140
873,80	167,557
873,97	157,679
874,13	50,275
874,30	64,194
874,46	102,749
874,63	74,688
874,80	85,675
874,96	62,540
875,13	129,939
875,29	81,134
875,46	111,473
875,62	40,636
875,79	130,610
875,95	91,243
876,12	63,778
876,28	26,563
876,45	145,896
876,61	33,839
876,78	68,659
876,94	62,800
877,11	137,622
877,27	134,510
877,44	113,895
877,60	56,783
877,77	146,091
877,94	129,530
878,10	90,479
878,27	58,985
878,43	151,343
878,60	55,623
878,76	92,287
878,93	32,655
879,09	125,355
879,26	145,263
879,42	56,791
879,58	84,370
879,75	155,978
879,91	173,839
880,08	4,842
880,24	71,296
880,41	101,639
880,57	116,406
880,74	55,004
880,90	91,504
881,07	103,681
881,23	191,353
881,40	104,026
881,56	100,792
881,73	125,215
881,89	109,786
882,06	51,050
882,22	197,496
882,38	208,686
882,55	237,706
882,71	106,649
882,88	90,681
883,04	223,534
883,21	232,107
883,37	51,656
883,54	123,343
883,70	277,442
883,86	181,224
884,03	92,061
884,19	46,698
884,36	221,796
884,52	383,751
884,69	174,830
884,85	93,906
885,01	310,102
885,18	175,390
885,34	117,812
885,51	86,454
885,67	106,220
>>>>> Data<<<<< Espectral Procesado Extremo
