Fichero De Datos De SpectraSuite
++++++++++++++++++++++++++++++++++++
Fecha: Wed Apr 22 13:11:30 CEST 2009
Usuario: evoflor
Presente Oscuro Del Espectro: Sí
La Referencia de Presente Del Espectro De: Sí
Muestreados de los componentes de Número de espectros: 1
Espectrómetros: USB4F02353
Tiempo de integración (usec): 500000 (USB4F02353)
Promedio de Espectros Hechos un: 5 (USB4F02353)
El Alisar Del Furgón: 0 (USB4F02353)
Párrafo de de Corregir del la del del de Eléctrica del obscuridad: Sí (USB4F02353)
Estrobo/Lámpara Permitido: No (USB4F02353)
Correct for Detector Non-linearity: No (USB4F02353)
Párrafo de de Corregir del la del del de Externa del luz: No (USB4F02353)
Procesado del espectro de Número de pixeles en: 3648
>>>>> Comienza Data<<<<< Espectral Procesado Del EL
177,79	322,551
178,00	322,551
178,22	322,551
178,44	2589,725
178,66	-302,825
178,88	445,163
179,09	-226,532
179,31	137,974
179,53	699,799
179,75	154,925
179,96	544,267
180,18	-407,492
180,40	645,334
180,62	329,801
180,83	-367,624
181,05	-1472,378
181,27	-177435,000
181,49	-25,728
181,70	450,519
181,92	1005,761
182,14	737,756
182,36	84,063
182,58	223,650
182,79	1338,549
183,01	-141,080
183,23	160,438
183,45	-224,723
183,66	15,332
183,88	477,265
184,10	-3782,455
184,32	283,255
184,53	330,542
184,75	-285,215
184,97	51,035
185,18	-375,818
185,40	-541,514
185,62	139,730
185,84	37,631
186,05	282,091
186,27	-229,883
186,49	5370,577
186,71	96,081
186,92	171,022
187,14	-228,437
187,36	144,691
187,58	112,765
187,79	-23,457
188,01	428,648
188,23	-181,918
188,45	69,236
188,66	-55,647
188,88	-2555,182
189,10	-2458,350
189,31	39,701
189,53	156,268
189,75	343,943
189,97	149,365
190,18	-45,773
190,40	450,794
190,62	-267,846
190,83	-352,208
191,05	140,437
191,27	218,957
191,49	160,730
191,70	-537,187
191,92	-451,144
192,14	-64,862
192,35	804,867
192,57	4863,857
192,79	206,499
193,01	200,414
193,22	31,137
193,44	-344,258
193,66	93,588
193,87	140,974
194,09	-38,341
194,31	215,308
194,53	731,014
194,74	111,992
194,96	-21,694
195,18	141,758
195,39	-475,290
195,61	-186,729
195,83	-280,076
196,04	175,057
196,26	8,367
196,48	-12,512
196,70	356,332
196,91	105,538
197,13	178,063
197,35	115,573
197,56	797,322
197,78	1821,157
198,00	642,902
198,21	157,937
198,43	-1764,157
198,65	163,767
198,86	353,363
199,08	204,049
199,30	182,460
199,51	-560,375
199,73	350,692
199,95	419,146
200,16	734,365
200,38	257,346
200,60	158,110
200,81	283,587
201,03	186,236
201,25	-1558,350
201,46	144,132
201,68	6,065
201,90	3684,886
202,11	-605,095
202,33	145,664
202,55	-527,062
202,76	-66,058
202,98	455,174
203,20	-56,899
203,41	-630,711
203,63	199,390
203,85	-117135,000
204,06	-58,155
204,28	-178,157
204,50	152,912
204,71	434,337
204,93	-250,920
205,15	219,985
205,36	-268,709
205,58	195,461
205,80	-219,204
206,01	96,379
206,23	93,003
206,45	321,989
206,66	205,465
206,88	55,739
207,10	227,352
207,31	373,291
207,53	118,671
207,75	88,439
207,96	1290,560
208,18	-229,070
208,39	116,783
208,61	5481,000
208,83	-442,145
209,04	187,227
209,26	-87,719
209,48	148,777
209,69	364,573
209,91	684,578
210,13	24,785
210,34	179,019
210,56	209,525
210,77	-1744,370
210,99	151,177
211,21	5196,176
211,42	-257,715
211,64	2,885
211,86	362,578
212,07	305,831
212,29	322,734
212,50	145,590
212,72	114,750
212,94	128,577
213,15	222,523
213,37	155,812
213,58	-28,237
213,80	-3315,536
214,02	13719,706
214,23	427,254
214,45	640,770
214,67	-660,183
214,88	-42,735
215,10	-350,414
215,31	-176,561
215,53	-200,148
215,75	228,757
215,96	1722,578
216,18	280,775
216,39	155,403
216,61	491,561
216,83	780,067
217,04	1508,258
217,26	65,540
217,47	183,708
217,69	309,494
217,91	-44,420
218,12	-119835,000
218,34	142,586
218,55	606,724
218,77	83,404
218,99	149,835
219,20	-239,619
219,42	347,309
219,63	53,443
219,85	-238,606
220,06	270,519
220,28	304,651
220,50	36,580
220,71	35,303
220,93	4502,547
221,14	-2926,350
221,36	154,618
221,58	89,755
221,79	161,586
222,01	808,060
222,22	1196,941
222,44	-8,596
222,65	80,815
222,87	605,140
223,09	138,698
223,30	81,438
223,52	231,937
223,73	152,829
223,95	21,739
224,16	180,278
224,38	356,481
224,60	21,800
224,81	88,016
225,03	209,290
225,24	316,449
225,46	85,440
225,67	49,794
225,89	129,758
226,10	496,491
226,32	1131,480
226,54	33,962
226,75	16,669
226,97	181,115
227,18	242,068
227,40	73,263
227,61	83,007
227,83	46,938
228,04	147,996
228,26	41,688
228,47	47,180
228,69	354,940
228,91	145,814
229,12	104,042
229,34	40,608
229,55	102,040
229,77	14,567
229,98	3,473
230,20	81,173
230,41	14,385
230,63	115,936
230,84	63,121
231,06	16,132
231,27	19,548
231,49	56,507
231,71	25,677
231,92	16,581
232,14	40,845
232,35	56,345
232,57	50,244
232,78	-2,344
233,00	59,284
233,21	45,690
233,43	2,003
233,64	23,485
233,86	47,948
234,07	51,818
234,29	8,428
234,50	30,884
234,72	46,655
234,93	36,795
235,15	10,899
235,36	17,909
235,58	44,462
235,79	51,330
236,01	23,364
236,22	11,687
236,44	57,663
236,65	30,194
236,87	19,966
237,08	-1,550
237,30	-3,337
237,51	20,854
237,73	-8,587
237,94	21,919
238,16	27,692
238,37	16,210
238,59	19,109
238,80	17,624
239,02	9,975
239,23	27,638
239,45	4,170
239,66	29,104
239,88	40,657
240,09	21,452
240,31	8,875
240,52	6,816
240,74	26,938
240,95	18,742
241,17	4,275
241,38	6,862
241,60	14,437
241,81	30,051
242,03	10,673
242,24	14,104
242,46	23,805
242,67	16,261
242,89	10,426
243,10	20,114
243,32	20,192
243,53	17,484
243,75	6,183
243,96	11,676
244,18	19,663
244,39	13,732
244,60	8,344
244,82	8,276
245,03	24,717
245,25	16,523
245,46	28,828
245,68	9,902
245,89	29,230
246,11	9,144
246,32	4,649
246,54	4,975
246,75	13,447
246,97	14,454
247,18	22,515
247,39	2,979
247,61	12,570
247,82	13,874
248,04	5,314
248,25	5,759
248,47	11,242
248,68	16,823
248,90	2,148
249,11	10,568
249,33	22,180
249,54	11,170
249,75	6,867
249,97	4,310
250,18	18,383
250,40	19,004
250,61	-4,161
250,83	6,718
251,04	3,928
251,25	16,967
251,47	4,233
251,68	11,085
251,90	13,325
252,11	8,980
252,33	8,148
252,54	8,805
252,76	10,929
252,97	4,769
253,18	3,457
253,40	8,105
253,61	3,570
253,83	12,676
254,04	11,706
254,25	8,691
254,47	7,205
254,68	7,068
254,90	7,331
255,11	9,152
255,33	10,327
255,54	10,238
255,75	2,870
255,97	8,244
256,18	0,975
256,40	12,157
256,61	6,273
256,82	2,711
257,04	13,636
257,25	3,530
257,47	5,150
257,68	3,707
257,89	12,990
258,11	13,253
258,32	10,500
258,54	9,223
258,75	17,404
258,96	14,534
259,18	6,357
259,39	7,094
259,61	13,994
259,82	7,763
260,03	12,016
260,25	7,696
260,46	9,404
260,68	6,137
260,89	2,966
261,10	7,577
261,32	8,958
261,53	6,134
261,75	6,998
261,96	4,372
262,17	9,132
262,39	11,704
262,60	5,743
262,81	-0,368
263,03	14,981
263,24	13,893
263,46	2,384
263,67	3,678
263,88	8,834
264,10	9,107
264,31	4,859
264,52	9,999
264,74	11,041
264,95	5,772
265,17	8,303
265,38	5,970
265,59	8,058
265,81	11,974
266,02	2,873
266,23	3,151
266,45	13,802
266,66	12,363
266,87	9,799
267,09	8,320
267,30	11,676
267,52	10,166
267,73	1,291
267,94	5,359
268,16	9,931
268,37	4,511
268,58	10,804
268,80	2,388
269,01	6,624
269,22	8,857
269,44	6,733
269,65	9,202
269,86	4,188
270,08	9,607
270,29	6,630
270,50	6,861
270,72	13,861
270,93	5,526
271,14	1,905
271,36	7,343
271,57	13,015
271,78	6,683
272,00	8,906
272,21	7,639
272,42	10,754
272,64	9,409
272,85	4,405
273,06	5,223
273,28	8,400
273,49	9,622
273,70	9,386
273,92	7,211
274,13	12,123
274,34	3,625
274,56	7,257
274,77	7,304
274,98	10,572
275,20	5,745
275,41	9,325
275,62	8,904
275,84	4,777
276,05	14,562
276,26	5,753
276,47	2,834
276,69	11,025
276,90	8,986
277,11	5,501
277,33	6,839
277,54	9,473
277,75	8,765
277,97	2,132
278,18	2,577
278,39	6,717
278,61	2,868
278,82	5,836
279,03	8,837
279,24	9,653
279,46	5,757
279,67	9,454
279,88	4,514
280,10	11,898
280,31	3,923
280,52	7,116
280,73	4,059
280,95	8,350
281,16	13,760
281,37	7,381
281,59	10,251
281,80	13,303
282,01	8,076
282,22	3,930
282,44	5,195
282,65	16,023
282,86	11,592
283,08	7,032
283,29	7,850
283,50	6,565
283,71	7,065
283,93	7,627
284,14	8,415
284,35	3,125
284,56	7,999
284,78	2,115
284,99	9,510
285,20	13,533
285,42	7,632
285,63	6,983
285,84	1,051
286,05	7,671
286,27	8,016
286,48	4,645
286,69	7,312
286,90	5,786
287,12	7,115
287,33	4,843
287,54	4,516
287,75	8,122
287,97	6,409
288,18	5,767
288,39	5,967
288,60	7,448
288,82	7,476
289,03	5,194
289,24	8,093
289,45	9,258
289,67	7,760
289,88	4,776
290,09	7,658
290,30	9,186
290,52	4,961
290,73	4,876
290,94	0,251
291,15	8,380
291,37	7,109
291,58	6,031
291,79	4,808
292,00	7,358
292,21	9,197
292,43	6,435
292,64	2,203
292,85	4,825
293,06	9,314
293,28	5,393
293,49	2,960
293,70	9,025
293,91	2,950
294,12	5,789
294,34	7,632
294,55	7,621
294,76	6,374
294,97	6,582
295,19	3,788
295,40	8,372
295,61	8,857
295,82	2,839
296,03	8,346
296,25	6,844
296,46	3,020
296,67	-0,525
296,88	3,142
297,09	7,940
297,31	7,675
297,52	4,952
297,73	4,692
297,94	8,026
298,15	8,304
298,37	6,265
298,58	6,288
298,79	7,700
299,00	3,457
299,21	5,931
299,43	3,675
299,64	11,814
299,85	7,155
300,06	1,041
300,27	3,298
300,49	9,372
300,70	6,605
300,91	6,156
301,12	4,528
301,33	9,992
301,54	4,893
301,76	7,180
301,97	2,806
302,18	6,820
302,39	9,154
302,60	13,072
302,82	5,259
303,03	12,820
303,24	6,537
303,45	7,624
303,66	3,346
303,87	3,982
304,09	7,777
304,30	7,027
304,51	4,542
304,72	3,781
304,93	7,955
305,14	6,844
305,36	4,029
305,57	4,105
305,78	7,379
305,99	4,822
306,20	4,223
306,41	4,739
306,62	4,954
306,84	4,875
307,05	5,584
307,26	6,277
307,47	9,088
307,68	6,078
307,89	7,721
308,11	8,793
308,32	5,920
308,53	6,877
308,74	3,943
308,95	4,852
309,16	8,496
309,37	6,276
309,59	2,658
309,80	6,733
310,01	7,384
310,22	7,080
310,43	2,925
310,64	8,550
310,85	5,795
311,06	5,320
311,28	4,742
311,49	6,637
311,70	9,796
311,91	2,264
312,12	2,894
312,33	7,126
312,54	6,947
312,75	7,631
312,97	2,007
313,18	9,396
313,39	4,653
313,60	5,521
313,81	5,142
314,02	6,362
314,23	8,085
314,44	3,305
314,65	5,128
314,87	1,734
315,08	7,805
315,29	6,783
315,50	6,555
315,71	8,999
315,92	11,029
316,13	5,965
316,34	6,836
316,55	10,806
316,77	5,327
316,98	5,148
317,19	3,846
317,40	6,612
317,61	7,731
317,82	3,167
318,03	2,075
318,24	4,989
318,45	7,774
318,66	6,419
318,87	2,471
319,09	6,307
319,30	5,834
319,51	9,171
319,72	8,399
319,93	7,859
320,14	10,729
320,35	8,720
320,56	4,274
320,77	3,681
320,98	12,342
321,19	5,743
321,40	6,783
321,62	8,506
321,83	5,373
322,04	5,672
322,25	6,742
322,46	13,491
322,67	8,761
322,88	7,350
323,09	6,253
323,30	9,923
323,51	11,200
323,72	7,667
323,93	3,421
324,14	6,314
324,35	0,745
324,56	1,723
324,77	6,781
324,99	5,514
325,20	2,256
325,41	6,221
325,62	5,932
325,83	3,021
326,04	6,948
326,25	6,058
326,46	4,726
326,67	4,387
326,88	6,742
327,09	4,315
327,30	3,832
327,51	8,229
327,72	8,581
327,93	7,526
328,14	2,191
328,35	3,934
328,56	7,558
328,77	4,719
328,98	7,683
329,19	7,432
329,40	9,596
329,61	6,256
329,82	2,121
330,04	6,541
330,25	5,786
330,46	7,986
330,67	4,454
330,88	5,900
331,09	7,921
331,30	5,787
331,51	3,419
331,72	6,957
331,93	8,790
332,14	4,812
332,35	4,429
332,56	5,221
332,77	8,340
332,98	1,344
333,19	2,948
333,40	6,482
333,61	7,108
333,82	7,502
334,03	6,222
334,24	11,339
334,45	6,680
334,66	8,984
334,87	6,711
335,08	7,556
335,29	5,093
335,50	2,200
335,71	3,465
335,92	7,967
336,13	7,833
336,34	3,118
336,55	6,791
336,76	9,768
336,97	8,103
337,18	3,721
337,39	4,785
337,60	9,352
337,81	6,868
338,02	6,111
338,23	6,068
338,44	7,016
338,65	5,535
338,86	5,606
339,07	4,103
339,28	5,845
339,49	8,615
339,70	2,634
339,91	6,757
340,11	10,802
340,32	4,319
340,53	2,844
340,74	4,149
340,95	4,294
341,16	7,498
341,37	3,183
341,58	2,772
341,79	3,767
342,00	5,650
342,21	3,649
342,42	7,106
342,63	8,424
342,84	4,788
343,05	8,057
343,26	4,807
343,47	6,329
343,68	4,065
343,89	4,664
344,10	4,563
344,31	8,760
344,52	6,188
344,73	3,774
344,94	4,470
345,14	3,395
345,35	7,644
345,56	6,910
345,77	6,738
345,98	6,808
346,19	5,729
346,40	5,304
346,61	5,828
346,82	5,299
347,03	5,776
347,24	6,034
347,45	4,849
347,66	12,242
347,87	5,902
348,08	6,458
348,28	3,398
348,49	8,882
348,70	6,693
348,91	8,102
349,12	4,112
349,33	20,116
349,54	6,279
349,75	6,618
349,96	6,394
350,17	6,437
350,38	3,308
350,59	8,203
350,80	6,554
351,00	9,624
351,21	9,855
351,42	4,806
351,63	5,779
351,84	7,543
352,05	7,688
352,26	5,048
352,47	1,961
352,68	7,267
352,89	8,588
353,09	7,079
353,30	3,706
353,51	3,240
353,72	9,628
353,93	9,502
354,14	3,240
354,35	6,195
354,56	12,844
354,77	5,938
354,98	3,174
355,18	9,438
355,39	10,943
355,60	5,865
355,81	4,493
356,02	7,285
356,23	6,754
356,44	4,382
356,65	8,049
356,85	13,426
357,06	11,142
357,27	9,651
357,48	1,084
357,69	7,844
357,90	9,198
358,11	2,993
358,32	4,241
358,52	9,368
358,73	5,381
358,94	4,044
359,15	9,632
359,36	8,106
359,57	4,647
359,78	7,369
359,98	5,258
360,19	3,258
360,40	8,230
360,61	9,433
360,82	6,033
361,03	11,267
361,24	12,723
361,44	4,058
361,65	7,301
361,86	1,878
362,07	5,753
362,28	5,125
362,49	3,260
362,70	6,551
362,90	10,195
363,11	5,819
363,32	6,168
363,53	6,368
363,74	12,373
363,95	9,093
364,15	7,842
364,36	12,804
364,57	6,516
364,78	3,690
364,99	5,484
365,20	7,975
365,40	9,255
365,61	3,677
365,82	8,076
366,03	6,738
366,24	5,268
366,45	3,573
366,65	6,122
366,86	6,280
367,07	7,410
367,28	5,316
367,49	6,388
367,69	10,452
367,90	4,129
368,11	3,786
368,32	4,221
368,53	8,141
368,73	7,803
368,94	6,875
369,15	5,554
369,36	10,753
369,57	9,723
369,78	6,436
369,98	9,438
370,19	11,285
370,40	5,644
370,61	6,655
370,82	7,634
371,02	9,296
371,23	10,054
371,44	4,424
371,65	6,967
371,85	10,853
372,06	7,442
372,27	6,963
372,48	5,758
372,69	7,981
372,89	6,294
373,10	4,068
373,31	6,834
373,52	7,281
373,73	9,327
373,93	6,724
374,14	6,081
374,35	8,002
374,56	10,014
374,76	7,900
374,97	7,673
375,18	9,622
375,39	8,606
375,60	7,671
375,80	7,592
376,01	6,844
376,22	10,157
376,43	5,992
376,63	7,122
376,84	7,695
377,05	10,494
377,26	2,755
377,46	3,627
377,67	6,291
377,88	9,496
378,09	7,674
378,29	6,021
378,50	7,448
378,71	9,256
378,92	4,410
379,12	8,168
379,33	7,527
379,54	4,644
379,75	9,666
379,95	6,653
380,16	6,312
380,37	12,083
380,58	5,906
380,78	8,414
380,99	7,241
381,20	5,965
381,41	5,792
381,61	8,467
381,82	7,739
382,03	7,753
382,24	8,208
382,44	7,797
382,65	8,305
382,86	6,535
383,06	9,916
383,27	6,930
383,48	9,299
383,69	11,146
383,89	9,289
384,10	8,500
384,31	9,117
384,51	12,950
384,72	12,310
384,93	4,675
385,14	9,326
385,34	8,475
385,55	5,341
385,76	5,982
385,96	14,748
386,17	11,623
386,38	10,381
386,59	12,119
386,79	10,632
387,00	9,995
387,21	12,289
387,41	9,017
387,62	6,512
387,83	15,039
388,03	9,548
388,24	2,670
388,45	6,422
388,66	10,564
388,86	10,878
389,07	4,134
389,28	11,922
389,48	9,760
389,69	7,522
389,90	8,560
390,10	11,017
390,31	11,546
390,52	6,743
390,72	8,390
390,93	11,010
391,14	9,188
391,34	10,159
391,55	9,983
391,76	11,684
391,96	10,891
392,17	6,974
392,38	10,872
392,58	13,762
392,79	12,304
393,00	4,411
393,20	6,499
393,41	10,729
393,62	11,175
393,82	9,000
394,03	8,316
394,24	10,728
394,44	11,827
394,65	8,059
394,86	7,159
395,06	12,510
395,27	8,995
395,48	9,314
395,68	9,517
395,89	8,487
396,10	14,533
396,30	9,853
396,51	5,015
396,72	10,558
396,92	8,744
397,13	11,791
397,34	5,835
397,54	9,760
397,75	7,536
397,95	8,284
398,16	10,668
398,37	11,945
398,57	9,665
398,78	10,513
398,99	13,453
399,19	14,132
399,40	13,845
399,60	4,907
399,81	13,591
400,02	14,561
400,22	12,467
400,43	9,135
400,64	15,318
400,84	10,976
401,05	13,316
401,25	12,014
401,46	12,315
401,67	14,956
401,87	13,945
402,08	7,458
402,29	8,214
402,49	15,772
402,70	15,184
402,90	8,765
403,11	9,570
403,32	16,338
403,52	11,432
403,73	10,816
403,93	11,639
404,14	17,055
404,35	14,829
404,55	7,551
404,76	12,548
404,96	14,065
405,17	13,767
405,38	15,632
405,58	9,573
405,79	16,949
405,99	14,885
406,20	13,348
406,40	8,676
406,61	16,500
406,82	12,388
407,02	16,288
407,23	12,813
407,43	12,695
407,64	14,044
407,85	10,703
408,05	8,471
408,26	21,868
408,46	19,011
408,67	8,471
408,87	7,490
409,08	9,586
409,29	16,091
409,49	15,081
409,70	13,204
409,90	15,053
410,11	18,172
410,31	19,063
410,52	15,946
410,72	14,992
410,93	18,385
411,14	15,458
411,34	11,444
411,55	14,636
411,75	18,703
411,96	15,566
412,16	14,396
412,37	16,310
412,57	16,472
412,78	15,775
412,99	12,269
413,19	15,899
413,40	15,078
413,60	10,191
413,81	10,054
414,01	14,302
414,22	11,753
414,42	11,500
414,63	10,199
414,83	17,632
415,04	20,624
415,24	16,088
415,45	16,320
415,65	12,258
415,86	13,428
416,07	14,813
416,27	19,042
416,48	20,454
416,68	22,841
416,89	11,443
417,09	14,986
417,30	21,462
417,50	16,691
417,71	15,955
417,91	18,101
418,12	12,906
418,32	16,232
418,53	14,286
418,73	11,945
418,94	14,511
419,14	16,965
419,35	8,998
419,55	16,947
419,76	16,596
419,96	12,906
420,17	11,945
420,37	14,327
420,58	20,691
420,78	21,214
420,99	17,787
421,19	18,560
421,40	17,928
421,60	18,423
421,81	14,843
422,01	17,211
422,22	16,709
422,42	17,765
422,63	12,633
422,83	11,721
423,04	20,592
423,24	23,431
423,45	13,520
423,65	17,529
423,86	20,507
424,06	18,734
424,27	15,964
424,47	14,809
424,67	16,278
424,88	14,613
425,08	13,243
425,29	21,117
425,49	12,100
425,70	11,083
425,90	18,654
426,11	17,118
426,31	17,267
426,52	16,500
426,72	13,753
426,93	14,188
427,13	20,449
427,33	13,518
427,54	18,964
427,74	19,330
427,95	23,647
428,15	13,461
428,36	16,308
428,56	15,830
428,77	17,302
428,97	14,842
429,18	15,662
429,38	16,299
429,58	21,398
429,79	18,634
429,99	14,938
430,20	7,637
430,40	22,323
430,61	12,978
430,81	13,722
431,01	17,469
431,22	15,097
431,42	21,895
431,63	13,664
431,83	13,471
432,04	17,709
432,24	26,095
432,44	13,438
432,65	14,539
432,85	11,654
433,06	19,557
433,26	14,820
433,47	14,675
433,67	17,005
433,87	12,481
434,08	11,691
434,28	15,520
434,49	15,051
434,69	24,209
434,89	12,816
435,10	17,009
435,30	19,993
435,51	14,782
435,71	16,281
435,91	13,452
436,12	14,539
436,32	17,201
436,53	17,709
436,73	16,010
436,93	17,273
437,14	16,539
437,34	18,642
437,55	14,335
437,75	20,926
437,95	21,308
438,16	18,097
438,36	14,947
438,57	14,766
438,77	14,496
438,97	18,416
439,18	18,457
439,38	13,112
439,58	16,304
439,79	16,046
439,99	14,946
440,20	20,219
440,40	19,104
440,60	16,057
440,81	13,567
441,01	18,786
441,21	21,448
441,42	20,519
441,62	20,806
441,83	18,204
442,03	17,509
442,23	18,283
442,44	12,010
442,64	19,647
442,84	12,584
443,05	19,199
443,25	14,198
443,45	17,879
443,66	14,815
443,86	11,234
444,06	17,410
444,27	11,531
444,47	16,850
444,67	17,587
444,88	19,501
445,08	18,539
445,28	17,748
445,49	16,791
445,69	13,409
445,90	19,206
446,10	25,853
446,30	18,972
446,51	17,153
446,71	24,353
446,91	24,943
447,12	23,109
447,32	16,264
447,52	19,977
447,72	20,466
447,93	20,164
448,13	10,983
448,33	22,102
448,54	20,285
448,74	12,438
448,94	21,130
449,15	23,136
449,35	21,833
449,55	20,208
449,76	22,258
449,96	20,774
450,16	19,074
450,37	16,997
450,57	19,593
450,77	15,422
450,98	18,339
451,18	21,548
451,38	18,978
451,58	22,183
451,79	18,558
451,99	22,309
452,19	15,109
452,40	22,689
452,60	11,599
452,80	12,746
453,00	20,843
453,21	18,542
453,41	21,088
453,61	16,477
453,82	22,482
454,02	13,461
454,22	27,821
454,42	19,453
454,63	16,718
454,83	19,715
455,03	21,843
455,24	22,089
455,44	17,305
455,64	17,063
455,84	15,054
456,05	16,194
456,25	14,986
456,45	21,460
456,65	19,391
456,86	21,029
457,06	20,114
457,26	21,668
457,47	23,987
457,67	17,672
457,87	12,100
458,07	21,607
458,28	22,734
458,48	21,508
458,68	10,692
458,88	22,505
459,09	18,388
459,29	23,062
459,49	18,834
459,69	23,788
459,90	24,145
460,10	16,861
460,30	19,234
460,50	17,762
460,71	19,815
460,91	14,675
461,11	21,949
461,31	13,747
461,52	20,045
461,72	17,519
461,92	17,728
462,12	28,059
462,32	12,748
462,53	16,952
462,73	16,871
462,93	17,896
463,13	20,998
463,34	14,206
463,54	15,765
463,74	19,359
463,94	20,211
464,14	21,631
464,35	14,775
464,55	22,610
464,75	26,123
464,95	21,109
465,16	15,068
465,36	20,837
465,56	20,994
465,76	17,339
465,96	18,034
466,17	18,707
466,37	14,179
466,57	21,232
466,77	17,255
466,97	16,428
467,18	24,417
467,38	16,399
467,58	19,559
467,78	25,668
467,98	17,478
468,19	18,254
468,39	19,999
468,59	19,567
468,79	20,342
468,99	16,156
469,19	14,008
469,40	20,314
469,60	18,071
469,80	13,871
470,00	22,603
470,20	23,174
470,41	16,142
470,61	18,001
470,81	19,227
471,01	12,763
471,21	22,466
471,41	17,474
471,62	17,877
471,82	16,098
472,02	14,027
472,22	18,513
472,42	20,102
472,62	20,738
472,83	17,771
473,03	21,315
473,23	18,104
473,43	27,101
473,63	21,505
473,83	17,187
474,03	17,116
474,24	23,931
474,44	16,979
474,64	17,759
474,84	15,216
475,04	21,466
475,24	21,171
475,45	19,301
475,65	17,192
475,85	22,700
476,05	13,147
476,25	17,302
476,45	19,035
476,65	25,639
476,85	20,326
477,06	17,235
477,26	17,068
477,46	17,817
477,66	17,369
477,86	21,469
478,06	13,475
478,26	26,729
478,46	17,965
478,67	22,433
478,87	17,014
479,07	19,707
479,27	23,504
479,47	17,222
479,67	15,345
479,87	13,020
480,07	22,080
480,28	18,556
480,48	17,934
480,68	20,285
480,88	24,177
481,08	18,768
481,28	21,224
481,48	20,737
481,68	18,824
481,88	17,838
482,08	17,682
482,29	22,613
482,49	16,176
482,69	19,586
482,89	17,199
483,09	23,588
483,29	17,813
483,49	14,796
483,69	21,131
483,89	15,364
484,09	16,876
484,29	13,509
484,50	17,885
484,70	19,269
484,90	18,472
485,10	16,634
485,30	20,110
485,50	22,782
485,70	20,851
485,90	18,125
486,10	13,367
486,30	17,925
486,50	17,192
486,70	15,478
486,90	16,512
487,10	20,187
487,30	19,412
487,51	17,057
487,71	16,210
487,91	16,561
488,11	18,878
488,31	15,284
488,51	18,830
488,71	16,062
488,91	19,999
489,11	14,732
489,31	17,517
489,51	18,329
489,71	15,638
489,91	17,319
490,11	15,010
490,31	19,627
490,51	19,333
490,71	16,544
490,91	18,768
491,11	18,083
491,31	18,939
491,51	16,393
491,72	16,344
491,92	19,995
492,12	21,686
492,32	18,249
492,52	21,433
492,72	21,522
492,92	19,802
493,12	20,577
493,32	15,991
493,52	17,015
493,72	21,055
493,92	19,282
494,12	19,986
494,32	20,212
494,52	17,595
494,72	18,213
494,92	17,026
495,12	21,056
495,32	21,028
495,52	18,930
495,72	17,145
495,92	21,696
496,12	21,030
496,32	14,854
496,52	17,783
496,72	16,985
496,92	20,085
497,12	17,186
497,32	18,056
497,52	21,757
497,72	22,679
497,92	20,715
498,12	17,975
498,32	20,211
498,52	21,887
498,72	18,296
498,92	18,429
499,12	23,840
499,32	16,300
499,52	19,962
499,72	21,360
499,92	20,774
500,12	20,176
500,32	21,298
500,52	18,809
500,72	25,417
500,91	21,444
501,11	19,452
501,31	15,288
501,51	22,381
501,71	22,326
501,91	20,644
502,11	18,847
502,31	21,297
502,51	21,395
502,71	17,264
502,91	19,029
503,11	21,057
503,31	20,213
503,51	16,963
503,71	15,402
503,91	23,202
504,11	21,859
504,31	21,573
504,51	19,926
504,71	23,657
504,91	17,870
505,10	20,491
505,30	20,053
505,50	19,692
505,70	19,772
505,90	20,287
506,10	17,439
506,30	21,851
506,50	21,878
506,70	19,962
506,90	19,209
507,10	18,800
507,30	20,661
507,50	21,392
507,70	21,061
507,89	20,942
508,09	20,639
508,29	21,610
508,49	20,198
508,69	17,977
508,89	19,338
509,09	17,277
509,29	17,972
509,49	23,344
509,69	25,185
509,89	22,185
510,09	17,309
510,28	21,161
510,48	20,627
510,68	17,587
510,88	19,844
511,08	19,022
511,28	20,926
511,48	18,555
511,68	16,888
511,88	15,539
512,07	22,044
512,27	22,515
512,47	18,657
512,67	16,646
512,87	19,481
513,07	19,394
513,27	18,833
513,47	19,285
513,67	16,323
513,86	21,843
514,06	19,751
514,26	19,917
514,46	23,638
514,66	19,508
514,86	19,195
515,06	25,869
515,26	22,462
515,45	18,689
515,65	16,258
515,85	21,181
516,05	16,416
516,25	18,582
516,45	20,920
516,65	19,492
516,84	21,275
517,04	23,251
517,24	17,052
517,44	22,828
517,64	23,375
517,84	21,952
518,04	20,288
518,23	22,682
518,43	27,109
518,63	19,615
518,83	18,072
519,03	17,784
519,23	20,420
519,42	19,737
519,62	18,320
519,82	19,018
520,02	17,932
520,22	18,218
520,42	19,891
520,61	20,923
520,81	22,642
521,01	21,251
521,21	16,113
521,41	19,935
521,61	24,356
521,80	17,267
522,00	19,021
522,20	19,116
522,40	23,855
522,60	20,418
522,79	17,612
522,99	22,853
523,19	16,525
523,39	19,233
523,59	19,557
523,78	22,880
523,98	17,589
524,18	19,515
524,38	17,764
524,58	18,484
524,77	23,272
524,97	20,514
525,17	18,812
525,37	17,863
525,57	21,958
525,76	19,337
525,96	20,481
526,16	17,362
526,36	16,572
526,56	19,917
526,75	17,644
526,95	23,309
527,15	18,700
527,35	21,077
527,55	15,715
527,74	20,427
527,94	19,213
528,14	17,379
528,34	19,779
528,53	17,131
528,73	22,608
528,93	18,254
529,13	17,147
529,32	22,373
529,52	23,481
529,72	16,258
529,92	17,037
530,12	18,307
530,31	16,088
530,51	19,185
530,71	18,838
530,91	20,366
531,10	16,785
531,30	18,924
531,50	17,561
531,70	21,181
531,89	20,014
532,09	18,874
532,29	18,760
532,49	20,110
532,68	19,324
532,88	17,474
533,08	17,913
533,28	18,076
533,47	21,204
533,67	20,528
533,87	16,310
534,06	25,938
534,26	19,131
534,46	18,911
534,66	17,160
534,85	20,934
535,05	14,512
535,25	17,746
535,45	15,792
535,64	17,811
535,84	21,777
536,04	17,453
536,23	19,369
536,43	18,720
536,63	15,896
536,83	18,447
537,02	19,245
537,22	18,419
537,42	19,214
537,61	17,460
537,81	19,541
538,01	23,547
538,20	21,053
538,40	15,591
538,60	18,164
538,80	18,801
538,99	19,628
539,19	18,039
539,39	17,187
539,58	19,402
539,78	15,361
539,98	15,114
540,17	14,385
540,37	17,107
540,57	15,530
540,76	16,755
540,96	11,581
541,16	16,966
541,36	15,407
541,55	10,902
541,75	11,772
541,95	13,591
542,14	12,371
542,34	11,906
542,54	11,666
542,73	14,140
542,93	16,235
543,13	11,989
543,32	11,512
543,52	13,775
543,72	11,470
543,91	12,843
544,11	12,787
544,31	12,269
544,50	13,189
544,70	13,234
544,89	13,828
545,09	16,306
545,29	14,058
545,48	13,450
545,68	13,278
545,88	14,263
546,07	13,999
546,27	13,659
546,47	13,990
546,66	16,012
546,86	16,813
547,06	15,200
547,25	14,981
547,45	19,157
547,64	17,204
547,84	20,003
548,04	15,081
548,23	18,586
548,43	17,509
548,63	19,177
548,82	17,418
549,02	16,091
549,21	15,706
549,41	16,464
549,61	16,244
549,80	14,590
550,00	16,545
550,20	15,844
550,39	17,579
550,59	18,756
550,78	19,467
550,98	14,549
551,18	18,153
551,37	16,736
551,57	15,590
551,76	17,225
551,96	17,489
552,16	15,849
552,35	16,591
552,55	16,733
552,74	15,500
552,94	20,886
553,14	17,495
553,33	14,744
553,53	17,124
553,72	16,839
553,92	18,161
554,12	15,759
554,31	16,159
554,51	19,575
554,70	15,567
554,90	18,617
555,09	18,234
555,29	21,215
555,49	19,467
555,68	21,071
555,88	17,163
556,07	15,939
556,27	19,957
556,46	17,766
556,66	13,885
556,86	20,665
557,05	17,577
557,25	18,298
557,44	16,226
557,64	19,213
557,83	17,276
558,03	17,960
558,22	15,588
558,42	18,812
558,62	21,353
558,81	16,297
559,01	16,306
559,20	20,625
559,40	18,524
559,59	17,721
559,79	16,074
559,98	18,634
560,18	19,484
560,37	18,167
560,57	19,825
560,76	17,379
560,96	16,515
561,16	19,278
561,35	17,477
561,55	21,052
561,74	17,836
561,94	18,466
562,13	17,189
562,33	20,189
562,52	18,248
562,72	17,598
562,91	17,456
563,11	17,304
563,30	19,134
563,50	15,321
563,69	16,841
563,89	16,239
564,08	17,847
564,28	18,423
564,47	17,354
564,67	17,572
564,86	18,146
565,06	16,199
565,25	15,506
565,45	16,826
565,64	20,882
565,84	16,543
566,03	16,493
566,23	19,157
566,42	18,692
566,62	17,498
566,81	17,595
567,01	17,167
567,20	19,227
567,40	16,159
567,59	17,369
567,79	19,807
567,98	21,642
568,18	16,754
568,37	19,020
568,57	19,287
568,76	20,418
568,96	15,933
569,15	16,495
569,35	20,112
569,54	21,842
569,73	18,890
569,93	16,623
570,12	17,915
570,32	18,604
570,51	17,200
570,71	19,535
570,90	21,134
571,10	16,033
571,29	15,726
571,49	16,533
571,68	18,613
571,87	20,067
572,07	17,289
572,26	14,104
572,46	18,597
572,65	17,407
572,85	14,939
573,04	18,785
573,24	17,622
573,43	20,398
573,62	18,304
573,82	17,698
574,01	18,252
574,21	17,699
574,40	16,147
574,60	15,376
574,79	20,896
574,98	17,027
575,18	18,856
575,37	15,575
575,57	18,782
575,76	19,258
575,96	17,614
576,15	16,522
576,34	17,125
576,54	17,622
576,73	17,797
576,93	18,208
577,12	18,084
577,31	17,481
577,51	17,160
577,70	17,150
577,90	18,283
578,09	16,430
578,28	17,333
578,48	17,788
578,67	19,559
578,87	17,974
579,06	16,532
579,25	17,493
579,45	17,001
579,64	15,788
579,84	16,075
580,03	16,321
580,22	18,609
580,42	16,797
580,61	16,461
580,81	16,759
581,00	19,059
581,19	18,070
581,39	16,741
581,58	17,269
581,77	17,708
581,97	18,386
582,16	17,803
582,35	15,644
582,55	17,407
582,74	19,116
582,94	16,462
583,13	16,037
583,32	17,529
583,52	18,947
583,71	17,931
583,90	16,673
584,10	17,485
584,29	18,728
584,48	16,660
584,68	17,894
584,87	18,743
585,06	17,698
585,26	16,219
585,45	17,961
585,65	18,378
585,84	16,935
586,03	17,844
586,23	15,743
586,42	17,122
586,61	20,237
586,81	17,757
587,00	17,695
587,19	16,875
587,39	20,826
587,58	18,287
587,77	18,731
587,97	16,850
588,16	18,147
588,35	18,360
588,54	19,027
588,74	17,784
588,93	19,352
589,12	18,365
589,32	17,058
589,51	17,196
589,70	17,059
589,90	16,546
590,09	17,772
590,28	21,750
590,48	16,991
590,67	17,829
590,86	18,424
591,06	17,246
591,25	20,933
591,44	19,342
591,63	17,594
591,83	19,047
592,02	18,909
592,21	18,089
592,41	17,264
592,60	19,673
592,79	18,706
592,98	18,843
593,18	17,517
593,37	18,301
593,56	18,913
593,76	17,810
593,95	16,968
594,14	16,615
594,33	20,612
594,53	17,633
594,72	17,710
594,91	21,337
595,10	16,766
595,30	17,915
595,49	18,060
595,68	21,026
595,88	19,911
596,07	20,048
596,26	20,507
596,45	19,158
596,65	15,120
596,84	19,030
597,03	19,946
597,22	20,116
597,42	23,960
597,61	18,720
597,80	17,554
597,99	19,135
598,19	19,674
598,38	19,609
598,57	17,908
598,76	21,249
598,95	20,754
599,15	20,739
599,34	19,674
599,53	19,073
599,72	18,464
599,92	19,963
600,11	17,628
600,30	21,664
600,49	21,864
600,69	18,441
600,88	20,043
601,07	20,253
601,26	19,937
601,45	20,035
601,65	16,356
601,84	19,235
602,03	19,724
602,22	20,972
602,42	20,122
602,61	20,578
602,80	21,169
602,99	19,776
603,18	18,679
603,38	21,008
603,57	19,686
603,76	19,739
603,95	18,304
604,14	20,956
604,34	20,300
604,53	18,703
604,72	19,818
604,91	19,739
605,10	19,124
605,29	21,227
605,49	17,394
605,68	20,418
605,87	22,082
606,06	19,861
606,25	17,994
606,45	21,102
606,64	19,121
606,83	19,770
607,02	20,143
607,21	20,837
607,40	20,311
607,60	17,521
607,79	17,857
607,98	16,826
608,17	18,207
608,36	18,460
608,55	19,857
608,75	19,660
608,94	18,633
609,13	17,312
609,32	16,402
609,51	17,930
609,70	16,148
609,89	17,697
610,09	18,173
610,28	19,213
610,47	17,615
610,66	16,567
610,85	15,442
611,04	19,130
611,23	17,013
611,43	15,691
611,62	16,564
611,81	17,292
612,00	18,074
612,19	15,994
612,38	16,039
612,57	18,147
612,77	17,599
612,96	17,768
613,15	17,926
613,34	19,471
613,53	19,589
613,72	19,260
613,91	18,284
614,10	19,525
614,29	19,736
614,49	17,054
614,68	17,483
614,87	18,781
615,06	22,042
615,25	16,956
615,44	19,912
615,63	19,277
615,82	18,842
616,01	18,773
616,21	18,399
616,40	21,999
616,59	23,030
616,78	19,675
616,97	20,206
617,16	20,396
617,35	21,902
617,54	21,007
617,73	22,838
617,92	20,650
618,11	22,299
618,31	17,703
618,50	19,071
618,69	19,900
618,88	19,682
619,07	17,201
619,26	18,914
619,45	18,695
619,64	19,024
619,83	19,629
620,02	19,915
620,21	22,981
620,40	20,454
620,59	18,984
620,78	19,473
620,97	21,191
621,17	21,153
621,36	19,096
621,55	20,011
621,74	22,268
621,93	21,024
622,12	19,187
622,31	19,366
622,50	19,874
622,69	23,783
622,88	19,891
623,07	22,196
623,26	22,354
623,45	23,929
623,64	19,744
623,83	19,578
624,02	21,600
624,21	21,813
624,40	21,467
624,59	19,192
624,78	21,569
624,97	24,232
625,16	19,819
625,35	19,295
625,54	20,371
625,73	20,815
625,92	19,858
626,12	22,106
626,31	22,575
626,50	22,486
626,69	19,792
626,88	18,974
627,07	22,320
627,26	22,345
627,45	19,745
627,64	19,235
627,83	22,597
628,02	20,166
628,21	20,760
628,40	19,350
628,59	22,774
628,78	19,491
628,97	18,566
629,16	17,868
629,35	20,518
629,54	24,558
629,73	20,609
629,92	19,008
630,10	21,720
630,29	21,185
630,48	20,369
630,67	20,671
630,86	23,795
631,05	21,077
631,24	23,147
631,43	19,494
631,62	22,417
631,81	21,941
632,00	20,865
632,19	18,897
632,38	21,657
632,57	17,478
632,76	18,600
632,95	21,107
633,14	22,830
633,33	21,921
633,52	21,159
633,71	22,833
633,90	18,897
634,09	21,451
634,28	21,136
634,47	19,498
634,66	22,166
634,85	21,485
635,04	23,621
635,22	21,444
635,41	21,571
635,60	22,182
635,79	23,060
635,98	18,587
636,17	21,924
636,36	19,392
636,55	21,030
636,74	18,888
636,93	22,077
637,12	21,959
637,31	19,979
637,50	19,580
637,69	22,218
637,87	21,959
638,06	19,955
638,25	20,625
638,44	21,783
638,63	17,322
638,82	20,091
639,01	19,708
639,20	22,500
639,39	23,239
639,58	20,640
639,77	23,112
639,95	20,598
640,14	22,544
640,33	20,836
640,52	21,159
640,71	24,133
640,90	21,483
641,09	23,207
641,28	18,855
641,47	22,731
641,66	23,243
641,84	22,790
642,03	20,732
642,22	21,344
642,41	24,439
642,60	22,042
642,79	21,101
642,98	22,799
643,17	22,023
643,35	20,725
643,54	20,948
643,73	22,746
643,92	24,220
644,11	20,560
644,30	19,462
644,49	24,255
644,67	20,600
644,86	19,050
645,05	22,567
645,24	21,462
645,43	22,925
645,62	21,934
645,81	21,868
645,99	24,274
646,18	24,004
646,37	21,350
646,56	20,840
646,75	24,326
646,94	23,049
647,13	22,206
647,31	19,530
647,50	21,218
647,69	23,836
647,88	23,261
648,07	22,237
648,26	26,333
648,44	21,477
648,63	21,339
648,82	22,122
649,01	23,691
649,20	20,763
649,38	22,183
649,57	21,605
649,76	20,219
649,95	22,280
650,14	20,230
650,33	20,727
650,51	22,823
650,70	23,185
650,89	21,516
651,08	20,626
651,27	23,259
651,45	21,656
651,64	20,060
651,83	22,466
652,02	21,485
652,21	24,318
652,39	24,198
652,58	24,918
652,77	23,853
652,96	23,652
653,15	22,317
653,33	22,994
653,52	23,066
653,71	25,236
653,90	21,621
654,09	23,225
654,27	22,789
654,46	24,213
654,65	21,418
654,84	23,069
655,02	23,965
655,21	23,614
655,40	24,285
655,59	22,920
655,77	23,560
655,96	22,713
656,15	22,700
656,34	23,506
656,53	21,556
656,71	22,746
656,90	21,728
657,09	23,327
657,28	23,454
657,46	20,910
657,65	22,546
657,84	20,735
658,03	24,409
658,21	20,691
658,40	21,148
658,59	21,991
658,78	23,915
658,96	22,296
659,15	21,653
659,34	22,406
659,52	22,971
659,71	23,735
659,90	20,581
660,09	21,613
660,27	21,234
660,46	25,705
660,65	21,537
660,84	21,866
661,02	23,111
661,21	24,366
661,40	22,243
661,58	22,218
661,77	22,909
661,96	21,192
662,15	21,614
662,33	20,926
662,52	23,726
662,71	22,307
662,89	20,582
663,08	21,488
663,27	22,844
663,45	22,260
663,64	21,968
663,83	18,275
664,02	22,158
664,20	23,496
664,39	21,195
664,58	22,394
664,76	22,081
664,95	22,758
665,14	21,878
665,32	19,947
665,51	23,261
665,70	23,127
665,88	25,013
666,07	22,046
666,26	24,077
666,44	23,356
666,63	20,118
666,82	20,370
667,00	23,247
667,19	20,150
667,38	23,390
667,56	22,842
667,75	22,750
667,94	23,900
668,12	22,123
668,31	22,989
668,50	22,863
668,68	23,568
668,87	21,259
669,06	21,248
669,24	23,057
669,43	20,139
669,62	21,302
669,80	20,958
669,99	21,088
670,18	22,855
670,36	19,712
670,55	20,914
670,74	22,006
670,92	20,711
671,11	22,617
671,29	21,055
671,48	22,653
671,67	22,885
671,85	21,732
672,04	19,785
672,23	21,658
672,41	22,340
672,60	21,067
672,78	19,931
672,97	21,491
673,16	21,921
673,34	21,016
673,53	20,598
673,71	22,920
673,90	22,805
674,09	22,553
674,27	22,529
674,46	21,651
674,64	22,057
674,83	21,186
675,02	20,905
675,20	22,675
675,39	22,622
675,57	21,441
675,76	20,943
675,95	24,850
676,13	23,987
676,32	22,619
676,50	22,408
676,69	19,395
676,88	21,387
677,06	20,647
677,25	22,036
677,43	25,296
677,62	21,267
677,80	22,244
677,99	21,731
678,18	23,741
678,36	24,425
678,55	20,131
678,73	20,298
678,92	22,867
679,10	22,427
679,29	21,543
679,48	19,601
679,66	21,408
679,85	21,361
680,03	20,982
680,22	20,716
680,40	21,925
680,59	22,598
680,77	20,406
680,96	22,584
681,15	22,295
681,33	23,715
681,52	21,173
681,70	23,407
681,89	24,250
682,07	22,451
682,26	22,086
682,44	21,806
682,63	22,427
682,81	23,527
683,00	22,611
683,18	20,489
683,37	23,433
683,55	21,618
683,74	22,282
683,92	28,089
684,11	24,262
684,29	22,276
684,48	19,586
684,67	20,865
684,85	22,051
685,04	22,580
685,22	21,822
685,41	22,012
685,59	22,498
685,78	21,476
685,96	21,522
686,15	21,706
686,33	22,383
686,52	22,348
686,70	22,659
686,89	21,767
687,07	23,628
687,26	24,679
687,44	23,911
687,62	20,633
687,81	24,349
687,99	22,106
688,18	21,411
688,36	22,436
688,55	22,846
688,73	22,945
688,92	21,727
689,10	22,206
689,29	23,512
689,47	24,156
689,66	21,097
689,84	22,118
690,03	25,632
690,21	20,897
690,40	22,570
690,58	20,549
690,76	21,073
690,95	23,699
691,13	22,220
691,32	23,685
691,50	24,211
691,69	24,133
691,87	21,570
692,06	21,263
692,24	21,003
692,43	21,791
692,61	20,013
692,79	20,492
692,98	21,214
693,16	25,170
693,35	21,696
693,53	22,586
693,72	22,628
693,90	25,066
694,08	20,794
694,27	20,939
694,45	23,824
694,64	25,875
694,82	20,633
695,01	22,058
695,19	22,548
695,37	21,181
695,56	20,132
695,74	21,920
695,93	24,509
696,11	21,418
696,29	22,494
696,48	23,615
696,66	24,352
696,85	22,114
697,03	20,459
697,21	24,192
697,40	24,645
697,58	22,507
697,77	22,354
697,95	22,820
698,13	22,214
698,32	22,623
698,50	22,905
698,69	20,933
698,87	23,230
699,05	22,809
699,24	21,248
699,42	22,022
699,60	19,727
699,79	20,183
699,97	21,167
700,16	20,804
700,34	24,218
700,52	21,268
700,71	21,126
700,89	22,315
701,07	21,233
701,26	22,846
701,44	21,004
701,63	21,047
701,81	23,517
701,99	24,151
702,18	20,420
702,36	21,041
702,54	23,833
702,73	21,086
702,91	21,425
703,09	21,133
703,28	21,524
703,46	23,504
703,64	21,076
703,83	23,405
704,01	23,159
704,19	22,253
704,38	20,755
704,56	19,724
704,74	24,411
704,93	22,870
705,11	23,025
705,29	21,422
705,48	28,538
705,66	23,457
705,84	23,019
706,03	19,266
706,21	21,692
706,39	22,767
706,58	20,320
706,76	21,055
706,94	22,669
707,12	22,531
707,31	22,009
707,49	21,218
707,67	22,735
707,86	26,256
708,04	21,161
708,22	19,102
708,41	22,176
708,59	21,471
708,77	19,107
708,95	21,615
709,14	24,403
709,32	23,721
709,50	19,539
709,69	21,400
709,87	22,619
710,05	21,907
710,23	22,038
710,42	20,267
710,60	22,900
710,78	27,252
710,97	20,330
711,15	20,005
711,33	23,953
711,51	22,545
711,70	19,411
711,88	21,563
712,06	24,044
712,24	22,709
712,43	22,376
712,61	20,421
712,79	21,250
712,97	20,987
713,16	22,162
713,34	21,943
713,52	24,352
713,70	21,691
713,89	22,865
714,07	22,209
714,25	22,335
714,43	24,119
714,62	20,265
714,80	21,023
714,98	20,394
715,16	22,220
715,35	20,056
715,53	21,651
715,71	23,972
715,89	23,990
716,07	21,191
716,26	25,415
716,44	24,477
716,62	22,873
716,80	22,576
716,99	21,610
717,17	22,709
717,35	23,852
717,53	20,507
717,71	21,551
717,90	23,239
718,08	22,843
718,26	18,634
718,44	23,043
718,62	23,163
718,81	23,563
718,99	20,698
719,17	22,001
719,35	21,374
719,53	23,560
719,72	20,046
719,90	21,677
720,08	22,628
720,26	24,660
720,44	20,957
720,62	22,074
720,81	24,001
720,99	26,449
721,17	21,978
721,35	24,687
721,53	22,324
721,72	24,623
721,90	20,999
722,08	22,136
722,26	23,833
722,44	22,614
722,62	21,956
722,81	21,513
722,99	23,071
723,17	22,234
723,35	21,678
723,53	22,377
723,71	24,919
723,89	22,906
724,08	18,393
724,26	21,236
724,44	21,422
724,62	24,329
724,80	21,861
724,98	21,365
725,16	27,391
725,35	23,709
725,53	21,587
725,71	20,555
725,89	24,186
726,07	25,339
726,25	24,263
726,43	20,864
726,61	25,062
726,80	24,094
726,98	21,144
727,16	22,106
727,34	24,119
727,52	24,026
727,70	22,020
727,88	21,443
728,06	21,310
728,25	21,542
728,43	20,687
728,61	20,495
728,79	21,751
728,97	22,527
729,15	22,709
729,33	22,619
729,51	23,273
729,69	22,954
729,87	21,604
730,06	22,567
730,24	22,743
730,42	25,027
730,60	19,922
730,78	21,923
730,96	21,440
731,14	22,599
731,32	22,236
731,50	20,958
731,68	22,053
731,86	22,618
732,04	23,594
732,22	22,071
732,41	26,633
732,59	22,238
732,77	22,698
732,95	25,087
733,13	23,224
733,31	23,202
733,49	20,357
733,67	24,044
733,85	23,867
734,03	23,227
734,21	21,705
734,39	22,449
734,57	24,424
734,75	25,424
734,93	21,448
735,11	22,029
735,29	21,513
735,47	25,563
735,65	21,204
735,84	20,877
736,02	22,534
736,20	25,053
736,38	21,154
736,56	23,279
736,74	23,722
736,92	21,835
737,10	21,713
737,28	22,221
737,46	24,192
737,64	22,281
737,82	20,276
738,00	22,702
738,18	26,632
738,36	24,746
738,54	22,664
738,72	22,171
738,90	22,035
739,08	23,445
739,26	18,888
739,44	23,132
739,62	25,016
739,80	23,866
739,98	21,766
740,16	22,002
740,34	21,722
740,52	25,848
740,70	21,981
740,88	21,014
741,06	23,481
741,24	23,566
741,42	23,435
741,60	21,274
741,78	24,387
741,96	22,522
742,14	21,396
742,32	20,610
742,50	23,151
742,68	23,102
742,86	22,244
743,04	20,390
743,21	24,152
743,39	23,588
743,57	22,643
743,75	22,186
743,93	21,594
744,11	19,153
744,29	21,924
744,47	22,373
744,65	22,686
744,83	22,093
745,01	22,681
745,19	22,614
745,37	25,095
745,55	23,455
745,73	23,617
745,91	19,788
746,09	22,283
746,27	21,462
746,45	20,885
746,62	22,740
746,80	23,268
746,98	23,859
747,16	20,079
747,34	22,508
747,52	23,104
747,70	23,749
747,88	21,210
748,06	20,156
748,24	24,266
748,42	25,258
748,60	21,820
748,78	21,575
748,95	25,093
749,13	26,207
749,31	21,838
749,49	23,877
749,67	24,163
749,85	23,624
750,03	21,877
750,21	22,214
750,39	23,069
750,57	24,551
750,74	22,757
750,92	21,990
751,10	24,480
751,28	19,717
751,46	22,114
751,64	22,452
751,82	23,757
752,00	24,810
752,17	23,149
752,35	21,969
752,53	25,191
752,71	23,956
752,89	23,231
753,07	21,164
753,25	23,537
753,43	21,876
753,60	23,501
753,78	20,744
753,96	25,740
754,14	24,666
754,32	21,827
754,50	23,416
754,68	24,508
754,85	23,517
755,03	22,568
755,21	22,449
755,39	26,288
755,57	22,787
755,75	22,277
755,92	20,878
756,10	24,479
756,28	24,026
756,46	19,717
756,64	22,260
756,82	22,911
756,99	22,251
757,17	22,307
757,35	19,818
757,53	25,170
757,71	26,545
757,89	20,792
758,06	23,160
758,24	23,635
758,42	21,956
758,60	21,526
758,78	21,822
758,95	23,482
759,13	25,704
759,31	22,281
759,49	21,078
759,67	21,798
759,84	23,664
760,02	24,154
760,20	21,930
760,38	23,366
760,56	20,797
760,73	22,793
760,91	22,423
761,09	25,486
761,27	22,198
761,45	23,185
761,62	23,100
761,80	23,036
761,98	24,316
762,16	23,131
762,33	22,074
762,51	24,786
762,69	21,781
762,87	21,030
763,05	21,203
763,22	21,884
763,40	21,059
763,58	20,769
763,76	20,649
763,93	25,382
764,11	25,214
764,29	21,487
764,47	22,959
764,64	23,866
764,82	25,468
765,00	22,033
765,18	20,369
765,35	22,914
765,53	23,618
765,71	23,372
765,89	21,372
766,06	22,221
766,24	21,865
766,42	21,394
766,60	22,307
766,77	22,252
766,95	21,146
767,13	19,872
767,30	22,683
767,48	22,457
767,66	20,592
767,84	20,468
768,01	22,390
768,19	23,641
768,37	22,276
768,54	21,721
768,72	23,148
768,90	22,741
769,08	23,011
769,25	23,561
769,43	22,027
769,61	19,861
769,78	24,677
769,96	21,075
770,14	24,611
770,31	25,775
770,49	23,723
770,67	22,233
770,85	21,732
771,02	22,956
771,20	23,511
771,38	22,971
771,55	22,906
771,73	20,023
771,91	23,446
772,08	25,761
772,26	22,053
772,44	23,356
772,61	23,430
772,79	20,754
772,97	21,651
773,14	19,254
773,32	23,452
773,50	20,744
773,67	21,708
773,85	25,054
774,03	26,761
774,20	20,861
774,38	22,018
774,56	21,412
774,73	20,223
774,91	21,891
775,09	21,933
775,26	25,063
775,44	24,616
775,61	23,822
775,79	21,201
775,97	24,414
776,14	21,044
776,32	21,108
776,50	21,581
776,67	24,106
776,85	23,420
777,03	19,967
777,20	21,543
777,38	24,599
777,55	23,274
777,73	19,394
777,91	22,655
778,08	23,576
778,26	23,896
778,43	20,749
778,61	16,582
778,79	19,960
778,96	20,707
779,14	21,135
779,32	23,081
779,49	23,706
779,67	26,074
779,84	22,294
780,02	25,850
780,20	18,464
780,37	25,776
780,55	16,352
780,72	23,585
780,90	24,059
781,07	24,126
781,25	22,039
781,43	20,589
781,60	22,391
781,78	21,302
781,95	21,078
782,13	22,459
782,30	26,064
782,48	22,938
782,66	21,571
782,83	20,658
783,01	27,868
783,18	26,825
783,36	22,995
783,53	23,262
783,71	22,881
783,89	22,624
784,06	22,617
784,24	22,822
784,41	22,350
784,59	21,434
784,76	23,658
784,94	22,847
785,11	23,809
785,29	20,932
785,46	21,647
785,64	22,804
785,82	23,175
785,99	24,942
786,17	23,450
786,34	21,943
786,52	25,106
786,69	23,283
786,87	21,830
787,04	22,573
787,22	21,917
787,39	24,595
787,57	24,451
787,74	23,090
787,92	26,524
788,09	23,663
788,27	21,399
788,44	21,109
788,62	25,027
788,79	23,447
788,97	25,010
789,14	20,610
789,32	22,539
789,49	21,788
789,67	24,797
789,84	24,577
790,02	23,762
790,19	22,042
790,37	23,149
790,54	20,910
790,72	27,993
790,89	25,004
791,07	26,467
791,24	17,219
791,42	23,085
791,59	24,725
791,77	23,127
791,94	21,089
792,12	20,598
792,29	25,699
792,47	23,802
792,64	25,693
792,81	24,376
792,99	25,141
793,16	25,041
793,34	24,688
793,51	23,732
793,69	24,680
793,86	22,204
794,04	22,940
794,21	26,092
794,39	21,769
794,56	19,641
794,73	22,679
794,91	28,569
795,08	24,447
795,26	21,980
795,43	22,209
795,61	27,244
795,78	23,371
795,95	23,468
796,13	24,100
796,30	24,261
796,48	19,337
796,65	23,092
796,83	22,056
797,00	27,777
797,17	23,677
797,35	20,458
797,52	22,963
797,70	25,725
797,87	22,735
798,04	22,437
798,22	23,800
798,39	24,393
798,57	23,419
798,74	22,958
798,91	19,486
799,09	21,783
799,26	25,163
799,44	21,239
799,61	19,051
799,78	22,957
799,96	26,907
800,13	21,976
800,31	24,007
800,48	26,537
800,65	27,122
800,83	22,415
801,00	20,595
801,17	25,164
801,35	27,834
801,52	26,766
801,70	22,111
801,87	24,339
802,04	26,383
802,22	21,953
802,39	25,480
802,56	27,005
802,74	26,151
802,91	22,515
803,08	21,257
803,26	25,462
803,43	30,540
803,61	23,119
803,78	23,144
803,95	23,085
804,13	23,347
804,30	22,072
804,47	24,737
804,65	28,254
804,82	23,589
804,99	26,108
805,17	22,504
805,34	30,103
805,51	26,100
805,69	21,843
805,86	23,671
806,03	29,237
806,21	29,731
806,38	25,578
806,55	25,761
806,72	29,214
806,90	29,912
807,07	21,563
807,24	24,296
807,42	24,760
807,59	25,842
807,76	21,624
807,94	19,591
808,11	26,935
808,28	29,833
808,45	24,228
808,63	27,102
808,80	28,931
808,97	22,061
809,15	19,153
809,32	24,850
809,49	21,883
809,67	23,475
809,84	27,587
810,01	26,949
810,18	36,910
810,36	28,148
810,53	26,188
810,70	23,806
810,87	26,173
811,05	24,522
811,22	24,329
811,39	26,404
811,57	31,302
811,74	27,355
811,91	19,984
812,08	23,743
812,26	29,137
812,43	22,179
812,60	27,000
812,77	23,087
812,95	32,750
813,12	27,706
813,29	22,486
813,46	22,975
813,64	29,047
813,81	25,137
813,98	22,017
814,15	28,500
814,32	31,011
814,50	28,893
814,67	25,469
814,84	26,134
815,01	26,378
815,19	15,552
815,36	19,644
815,53	25,330
815,70	18,979
815,87	29,895
816,05	17,290
816,22	27,138
816,39	32,043
816,56	29,282
816,74	23,673
816,91	21,195
817,08	34,075
817,25	31,510
817,42	22,538
817,60	22,699
817,77	26,607
817,94	28,046
818,11	25,110
818,28	27,119
818,45	24,447
818,63	24,932
818,80	24,274
818,97	24,647
819,14	26,784
819,31	33,102
819,49	26,443
819,66	20,094
819,83	27,596
820,00	32,504
820,17	26,631
820,34	26,945
820,52	31,454
820,69	29,464
820,86	24,173
821,03	29,469
821,20	28,297
821,37	31,204
821,55	19,583
821,72	24,100
821,89	30,037
822,06	34,762
822,23	20,262
822,40	25,662
822,57	26,606
822,75	37,213
822,92	18,948
823,09	25,225
823,26	31,032
823,43	32,108
823,60	25,102
823,77	23,088
823,94	28,848
824,12	35,230
824,29	26,820
824,46	26,956
824,63	34,411
824,80	33,538
824,97	25,550
825,14	26,526
825,31	31,988
825,49	28,280
825,66	27,229
825,83	25,705
826,00	29,477
826,17	38,521
826,34	26,270
826,51	26,936
826,68	23,311
826,85	29,124
827,02	23,506
827,20	23,800
827,37	26,291
827,54	29,923
827,71	22,063
827,88	26,719
828,05	30,079
828,22	28,420
828,39	27,254
828,56	32,789
828,73	30,212
828,90	28,026
829,07	21,808
829,25	19,382
829,42	32,217
829,59	24,432
829,76	21,772
829,93	21,573
830,10	28,785
830,27	26,466
830,44	25,233
830,61	25,608
830,78	43,279
830,95	28,901
831,12	28,361
831,29	21,802
831,46	16,163
831,63	28,665
831,80	24,219
831,97	22,297
832,14	38,427
832,31	37,296
832,48	26,349
832,65	25,948
832,83	26,637
833,00	38,535
833,17	23,674
833,34	33,560
833,51	30,030
833,68	35,435
833,85	30,930
834,02	18,054
834,19	32,658
834,36	34,027
834,53	12,101
834,70	28,390
834,87	43,766
835,04	29,822
835,21	29,756
835,38	21,791
835,55	24,826
835,72	39,863
835,89	29,012
836,06	26,279
836,23	44,032
836,40	22,673
836,57	17,738
836,74	34,199
836,91	32,541
837,08	37,923
837,25	27,335
837,42	19,664
837,59	29,246
837,76	40,852
837,93	22,873
838,09	22,112
838,26	36,060
838,43	36,512
838,60	26,798
838,77	25,639
838,94	31,361
839,11	27,996
839,28	22,523
839,45	22,526
839,62	25,711
839,79	31,110
839,96	22,039
840,13	35,818
840,30	27,974
840,47	23,878
840,64	30,909
840,81	31,291
840,98	21,596
841,15	38,548
841,32	18,864
841,48	31,121
841,65	26,431
841,82	28,418
841,99	24,502
842,16	27,086
842,33	26,858
842,50	26,322
842,67	29,290
842,84	27,498
843,01	36,391
843,18	32,130
843,35	22,648
843,52	18,810
843,68	36,011
843,85	32,315
844,02	27,980
844,19	22,261
844,36	41,173
844,53	31,255
844,70	29,816
844,87	38,809
845,04	35,731
845,21	21,009
845,37	31,976
845,54	22,783
845,71	26,007
845,88	56,057
846,05	17,089
846,22	17,522
846,39	32,866
846,56	44,378
846,72	11,592
846,89	22,759
847,06	41,616
847,23	39,798
847,40	26,411
847,57	15,645
847,74	38,444
847,90	39,561
848,07	25,612
848,24	34,912
848,41	32,328
848,58	48,305
848,75	21,782
848,92	18,216
849,08	27,521
849,25	32,618
849,42	19,614
849,59	32,649
849,76	25,496
849,93	29,401
850,09	33,220
850,26	21,551
850,43	37,577
850,60	35,992
850,77	30,612
850,94	28,509
851,10	32,331
851,27	31,602
851,44	22,494
851,61	28,661
851,78	45,692
851,95	42,702
852,11	28,397
852,28	24,968
852,45	44,108
852,62	44,376
852,79	27,037
852,95	21,349
853,12	43,880
853,29	28,323
853,46	21,340
853,63	30,696
853,79	27,807
853,96	22,579
854,13	40,383
854,30	24,551
854,46	49,791
854,63	34,697
854,80	12,391
854,97	20,309
855,14	47,126
855,30	40,263
855,47	22,742
855,64	31,569
855,81	38,142
855,97	49,638
856,14	29,106
856,31	25,112
856,48	48,666
856,65	49,619
856,81	20,494
856,98	17,939
857,15	20,305
857,32	34,610
857,48	18,952
857,65	36,541
857,82	40,461
857,99	40,413
858,15	34,976
858,32	32,439
858,49	35,106
858,65	58,025
858,82	34,199
858,99	30,232
859,16	46,284
859,32	51,953
859,49	15,398
859,66	32,459
859,83	35,883
859,99	32,900
860,16	33,280
860,33	31,683
860,49	43,240
860,66	46,014
860,83	31,861
861,00	32,507
861,16	49,380
861,33	48,106
861,50	30,358
861,66	20,407
861,83	58,820
862,00	43,085
862,16	40,802
862,33	25,338
862,50	82,044
862,67	36,010
862,83	25,804
863,00	54,124
863,17	54,095
863,33	32,551
863,50	-8,850
863,67	31,171
863,83	41,779
864,00	50,032
864,17	29,647
864,33	8,100
864,50	49,050
864,67	45,781
864,83	32,228
865,00	25,613
865,17	28,709
865,33	57,714
865,50	3,337
865,67	0,896
865,83	62,659
866,00	75,756
866,17	30,303
866,33	38,642
866,50	42,538
866,66	41,760
866,83	34,933
867,00	53,030
867,16	63,438
867,33	47,461
867,50	-2,249
867,66	10,118
867,83	57,851
868,00	56,288
868,16	46,657
868,33	25,444
868,49	52,172
868,66	54,151
868,83	34,769
868,99	42,295
869,16	66,066
869,32	51,474
869,49	37,014
869,66	-3,437
869,82	81,388
869,99	72,929
870,15	25,043
870,32	45,740
870,49	67,579
870,65	89,159
870,82	51,142
870,98	37,645
871,15	79,239
871,32	90,963
871,48	-6,372
871,65	11,589
871,81	45,906
871,98	23,370
872,15	19,994
872,31	21,147
872,48	103,751
872,64	56,486
872,81	15,657
872,97	57,698
873,14	78,053
873,31	55,465
873,47	29,713
873,64	48,529
873,80	120,946
873,97	76,488
874,13	32,633
874,30	58,406
874,46	58,321
874,63	71,285
874,80	29,056
874,96	3,430
875,13	114,875
875,29	35,120
875,46	58,400
875,62	17,842
875,79	100,073
875,95	62,333
876,12	12,914
876,28	-10,150
876,45	114,964
876,61	62,712
876,78	12,071
876,94	7,296
877,11	58,072
877,27	107,919
877,44	29,990
877,60	38,710
877,77	95,383
877,94	98,143
878,10	25,356
878,27	68,933
878,43	143,729
878,60	20,294
878,76	41,496
878,93	-4,204
879,09	111,481
879,26	107,137
879,42	96,134
879,58	62,439
879,75	87,546
879,91	110,916
880,08	-35,770
880,24	58,448
880,41	63,473
880,57	117,642
880,74	39,005
880,90	54,117
881,07	78,007
881,23	143,027
881,40	48,380
881,56	79,208
881,73	105,324
881,89	109,422
882,06	-81,007
882,22	110,250
882,38	145,185
882,55	183,734
882,71	63,509
882,88	32,482
883,04	144,758
883,21	140,802
883,37	59,361
883,54	65,685
883,70	242,671
883,86	118,576
884,03	64,088
884,19	46,728
884,36	118,188
884,52	192,424
884,69	62,146
884,85	38,536
885,01	184,252
885,18	136,197
885,34	63,812
885,51	-7,915
885,67	87,046
>>>>> Data<<<<< Espectral Procesado Extremo
