Fichero De Datos De SpectraSuite
++++++++++++++++++++++++++++++++++++
Fecha: Wed Apr 22 13:14:00 CEST 2009
Usuario: evoflor
Presente Oscuro Del Espectro: Sí
La Referencia de Presente Del Espectro De: Sí
Muestreados de los componentes de Número de espectros: 1
Espectrómetros: USB4F02353
Tiempo de integración (usec): 500000 (USB4F02353)
Promedio de Espectros Hechos un: 5 (USB4F02353)
El Alisar Del Furgón: 0 (USB4F02353)
Párrafo de de Corregir del la del del de Eléctrica del obscuridad: Sí (USB4F02353)
Estrobo/Lámpara Permitido: No (USB4F02353)
Correct for Detector Non-linearity: No (USB4F02353)
Párrafo de de Corregir del la del del de Externa del luz: No (USB4F02353)
Procesado del espectro de Número de pixeles en: 3648
>>>>> Comienza Data<<<<< Espectral Procesado Del EL
177,79	406,989
178,00	406,989
178,22	406,989
178,44	1930,385
178,66	-320,332
178,88	320,081
179,09	-110,362
179,31	353,452
179,53	749,025
179,75	492,877
179,96	308,922
180,18	-423,185
180,40	501,067
180,62	383,912
180,83	-220,103
181,05	-2072,378
181,27	-156435,000
181,49	-36,815
181,70	130,904
181,92	414,898
182,14	988,961
182,36	48,499
182,58	64,650
182,79	1112,210
183,01	-44,781
183,23	204,058
183,45	-401,031
183,66	32,588
183,88	549,618
184,10	-2517,000
184,32	311,473
184,53	332,710
184,75	-329,758
184,97	20,129
185,18	-184,088
185,40	-609,303
185,62	181,668
185,84	-14,116
186,05	247,273
186,27	-139,624
186,49	3801,346
186,71	-48,911
186,92	115,157
187,14	-260,425
187,36	181,761
187,58	133,620
187,79	-98,229
188,01	380,889
188,23	-393,281
188,45	-82,211
188,66	-48,951
188,88	-2222,455
189,10	-2077,350
189,31	-5,862
189,53	47,327
189,75	359,625
189,97	210,519
190,18	-282,682
190,40	639,618
190,62	-258,023
190,83	-229,056
191,05	250,135
191,27	200,100
191,49	298,106
191,70	-713,149
191,92	-540,127
192,14	12,136
192,35	529,536
192,57	4135,286
192,79	40,118
193,01	248,993
193,22	178,775
193,44	-191,698
193,66	134,846
193,87	-54,315
194,09	-33,118
194,31	200,041
194,53	760,385
194,74	78,121
194,96	38,919
195,18	128,545
195,39	-151,544
195,61	-84,069
195,83	-447,685
196,04	143,099
196,26	-225,302
196,48	15,916
196,70	230,487
196,91	67,613
197,13	409,709
197,35	45,253
197,56	662,647
197,78	1771,903
198,00	571,573
198,21	623,956
198,43	-1061,250
198,65	140,846
198,86	313,435
199,08	374,213
199,30	322,136
199,51	-409,886
199,73	196,198
199,95	356,027
200,16	653,596
200,38	210,880
200,60	56,255
200,81	238,619
201,03	505,802
201,25	-1438,350
201,46	77,107
201,68	104,180
201,90	4680,341
202,11	-373,798
202,33	229,147
202,55	200,438
202,76	-32,763
202,98	184,443
203,20	-16,514
203,41	-27,553
203,63	233,083
203,85	-147435,000
204,06	58,086
204,28	-47,313
204,50	177,205
204,71	440,168
204,93	121,080
205,15	205,527
205,36	-252,648
205,58	319,261
205,80	-112,406
206,01	91,541
206,23	171,206
206,45	242,315
206,66	229,683
206,88	-104,092
207,10	138,716
207,31	302,563
207,53	133,243
207,75	106,382
207,96	784,590
208,18	-248,524
208,39	75,155
208,61	1641,000
208,83	-491,574
209,04	134,550
209,26	-152,696
209,48	246,590
209,69	288,605
209,91	616,672
210,13	83,273
210,34	158,680
210,56	232,365
210,77	-1508,150
210,99	158,029
211,21	2743,235
211,42	-265,161
211,64	-65,919
211,86	370,925
212,07	258,577
212,29	260,418
212,50	148,044
212,72	47,827
212,94	138,560
213,15	168,425
213,37	108,680
213,58	-59,501
213,80	-4622,679
214,02	15343,235
214,23	273,969
214,45	442,082
214,67	-1051,646
214,88	199,883
215,10	-292,843
215,31	-149,705
215,53	-80,148
215,75	139,017
215,96	1765,435
216,18	175,141
216,39	283,915
216,61	622,566
216,83	461,317
217,04	989,157
217,26	66,508
217,47	133,788
217,69	313,165
217,91	-6,534
218,12	-147435,000
218,34	75,155
218,55	472,241
218,77	105,546
218,99	163,963
219,20	-282,533
219,42	383,895
219,63	82,868
219,85	-159,549
220,06	44,365
220,28	262,804
220,50	72,611
220,71	82,005
220,93	4072,358
221,14	-2545,350
221,36	50,220
221,58	-34,064
221,79	78,051
222,01	1201,164
222,22	892,993
222,44	817,247
222,65	80,491
222,87	414,231
223,09	195,673
223,30	171,881
223,52	251,839
223,73	97,469
223,95	13,711
224,16	200,072
224,38	519,988
224,60	120,245
224,81	158,318
225,03	143,541
225,24	252,760
225,46	69,992
225,67	69,856
225,89	-11,996
226,10	622,997
226,32	1337,880
226,54	-6,022
226,75	80,315
226,97	92,305
227,18	152,045
227,40	37,834
227,61	33,068
227,83	-16,301
228,04	70,817
228,26	59,777
228,47	49,638
228,69	321,929
228,91	56,142
229,12	139,982
229,34	37,152
229,55	53,053
229,77	3,748
229,98	-12,717
230,20	68,329
230,41	-24,530
230,63	106,281
230,84	68,011
231,06	18,007
231,27	77,538
231,49	82,794
231,71	36,090
231,92	25,024
232,14	13,889
232,35	66,469
232,57	96,513
232,78	27,118
233,00	45,078
233,21	41,933
233,43	0,692
233,64	11,928
233,86	39,963
234,07	15,131
234,29	21,885
234,50	13,512
234,72	41,291
234,93	36,521
235,15	13,738
235,36	34,579
235,58	42,439
235,79	63,079
236,01	28,745
236,22	17,865
236,44	47,096
236,65	31,943
236,87	22,149
237,08	7,261
237,30	-5,343
237,51	23,345
237,73	2,571
237,94	6,919
238,16	16,691
238,37	12,119
238,59	7,235
238,80	8,396
239,02	15,024
239,23	22,243
239,45	-4,907
239,66	14,371
239,88	30,104
240,09	19,531
240,31	6,385
240,52	5,634
240,74	28,632
240,95	21,741
241,17	2,054
241,38	7,408
241,60	12,033
241,81	33,700
242,03	6,378
242,24	9,648
242,46	18,055
242,67	7,679
242,89	6,112
243,10	15,808
243,32	14,363
243,53	15,083
243,75	8,878
243,96	8,085
244,18	15,345
244,39	2,995
244,60	8,041
244,82	0,602
245,03	21,770
245,25	9,432
245,46	28,326
245,68	2,443
245,89	22,289
246,11	12,547
246,32	8,471
246,54	7,118
246,75	13,426
246,97	18,236
247,18	14,509
247,39	4,790
247,61	8,927
247,82	12,873
248,04	3,884
248,25	6,811
248,47	11,511
248,68	15,146
248,90	-0,724
249,11	6,749
249,33	19,216
249,54	9,756
249,75	6,438
249,97	4,451
250,18	18,629
250,40	20,479
250,61	-4,751
250,83	4,280
251,04	5,350
251,25	11,496
251,47	1,751
251,68	8,219
251,90	8,626
252,11	7,430
252,33	3,315
252,54	5,654
252,76	3,817
252,97	-1,199
253,18	0,234
253,40	4,918
253,61	3,364
253,83	10,294
254,04	9,568
254,25	5,284
254,47	0,812
254,68	8,377
254,90	5,496
255,11	4,651
255,33	4,147
255,54	4,356
255,75	4,914
255,97	11,374
256,18	4,660
256,40	6,389
256,61	3,597
256,82	-1,017
257,04	12,031
257,25	-0,572
257,47	5,507
257,68	2,389
257,89	9,198
258,11	11,045
258,32	4,215
258,54	5,732
258,75	11,872
258,96	8,882
259,18	1,982
259,39	3,858
259,61	9,721
259,82	-0,008
260,03	7,682
260,25	5,820
260,46	4,632
260,68	6,123
260,89	1,673
261,10	2,462
261,32	6,606
261,53	4,950
261,75	10,181
261,96	2,612
262,17	10,595
262,39	11,443
262,60	1,132
262,81	-1,960
263,03	12,857
263,24	5,770
263,46	0,813
263,67	1,255
263,88	7,553
264,10	6,288
264,31	4,223
264,52	5,330
264,74	9,119
264,95	3,407
265,17	7,935
265,38	0,947
265,59	7,010
265,81	7,142
266,02	-0,525
266,23	4,174
266,45	10,167
266,66	8,922
266,87	13,150
267,09	0,510
267,30	9,129
267,52	10,471
267,73	7,139
267,94	4,715
268,16	6,038
268,37	1,239
268,58	4,743
268,80	1,144
269,01	5,617
269,22	8,662
269,44	6,648
269,65	2,828
269,86	-1,642
270,08	7,077
270,29	0,637
270,50	3,947
270,72	9,230
270,93	3,434
271,14	-0,335
271,36	2,378
271,57	7,648
271,78	6,632
272,00	7,512
272,21	8,972
272,42	3,588
272,64	9,469
272,85	0,910
273,06	2,337
273,28	5,682
273,49	8,103
273,70	7,727
273,92	5,829
274,13	9,848
274,34	2,992
274,56	8,804
274,77	1,275
274,98	7,088
275,20	6,660
275,41	4,567
275,62	5,972
275,84	2,871
276,05	11,866
276,26	0,840
276,47	-1,138
276,69	10,293
276,90	9,260
277,11	3,124
277,33	3,879
277,54	5,667
277,75	7,929
277,97	3,287
278,18	1,948
278,39	8,146
278,61	2,124
278,82	3,881
279,03	8,044
279,24	5,568
279,46	5,845
279,67	8,032
279,88	4,335
280,10	8,617
280,31	-0,200
280,52	6,632
280,73	0,225
280,95	9,311
281,16	6,761
281,37	2,708
281,59	7,945
281,80	11,673
282,01	3,276
282,22	1,770
282,44	-0,575
282,65	14,430
282,86	8,716
283,08	2,672
283,29	5,483
283,50	5,787
283,71	7,299
283,93	5,135
284,14	5,650
284,35	4,848
284,56	6,402
284,78	0,973
284,99	3,525
285,20	11,229
285,42	5,555
285,63	5,445
285,84	-2,960
286,05	-0,006
286,27	6,347
286,48	1,482
286,69	4,613
286,90	4,672
287,12	3,177
287,33	3,419
287,54	1,238
287,75	8,820
287,97	6,696
288,18	3,781
288,39	1,731
288,60	4,575
288,82	3,773
289,03	2,271
289,24	4,831
289,45	7,134
289,67	5,175
289,88	0,108
290,09	6,911
290,30	4,464
290,52	3,381
290,73	4,760
290,94	0,077
291,15	7,994
291,37	5,431
291,58	3,285
291,79	4,799
292,00	5,564
292,21	6,150
292,43	4,021
292,64	0,407
292,85	4,602
293,06	6,819
293,28	2,650
293,49	3,637
293,70	8,862
293,91	3,381
294,12	4,696
294,34	3,835
294,55	3,525
294,76	4,418
294,97	7,948
295,19	0,934
295,40	4,081
295,61	4,320
295,82	0,872
296,03	4,995
296,25	2,956
296,46	2,833
296,67	2,893
296,88	0,628
297,09	6,015
297,31	4,339
297,52	4,969
297,73	1,984
297,94	6,693
298,15	4,568
298,37	3,971
298,58	6,931
298,79	4,534
299,00	1,432
299,21	3,804
299,43	3,594
299,64	7,748
299,85	5,898
300,06	4,359
300,27	1,093
300,49	8,290
300,70	4,940
300,91	3,525
301,12	3,202
301,33	5,099
301,54	1,311
301,76	3,852
301,97	1,495
302,18	4,598
302,39	5,964
302,60	12,442
302,82	6,037
303,03	6,741
303,24	5,173
303,45	5,597
303,66	3,587
303,87	3,433
304,09	7,626
304,30	2,863
304,51	0,092
304,72	2,158
304,93	3,847
305,14	3,976
305,36	0,532
305,57	0,748
305,78	5,856
305,99	5,096
306,20	3,605
306,41	2,705
306,62	1,687
306,84	1,518
307,05	-0,176
307,26	3,973
307,47	9,129
307,68	4,077
307,89	2,340
308,11	5,302
308,32	1,548
308,53	3,706
308,74	2,260
308,95	3,455
309,16	7,810
309,37	6,718
309,59	0,888
309,80	3,509
310,01	4,820
310,22	5,699
310,43	2,399
310,64	3,051
310,85	6,614
311,06	1,454
311,28	2,529
311,49	3,796
311,70	7,612
311,91	2,015
312,12	2,270
312,33	6,210
312,54	5,866
312,75	0,502
312,97	2,073
313,18	5,467
313,39	2,284
313,60	4,073
313,81	3,486
314,02	3,440
314,23	6,584
314,44	-0,631
314,65	4,564
314,87	-0,707
315,08	2,688
315,29	4,058
315,50	6,745
315,71	5,705
315,92	6,104
316,13	4,574
316,34	4,728
316,55	5,177
316,77	0,727
316,98	3,798
317,19	0,044
317,40	2,859
317,61	5,565
317,82	3,830
318,03	0,605
318,24	2,776
318,45	9,630
318,66	4,151
318,87	0,826
319,09	7,530
319,30	5,156
319,51	6,410
319,72	5,295
319,93	6,978
320,14	4,301
320,35	4,328
320,56	1,187
320,77	3,996
320,98	10,120
321,19	4,061
321,40	5,403
321,62	6,838
321,83	3,724
322,04	5,823
322,25	4,317
322,46	8,845
322,67	5,951
322,88	3,903
323,09	0,692
323,30	6,477
323,51	10,691
323,72	4,205
323,93	0,760
324,14	5,478
324,35	-0,286
324,56	2,195
324,77	2,858
324,99	5,090
325,20	-0,511
325,41	3,982
325,62	4,109
325,83	1,610
326,04	2,778
326,25	4,806
326,46	-0,333
326,67	4,848
326,88	6,804
327,09	2,415
327,30	2,556
327,51	3,974
327,72	5,865
327,93	5,546
328,14	-1,188
328,35	3,951
328,56	6,474
328,77	4,943
328,98	5,292
329,19	6,198
329,40	5,946
329,61	4,205
329,82	1,751
330,04	3,264
330,25	4,805
330,46	4,795
330,67	0,151
330,88	1,430
331,09	4,840
331,30	4,372
331,51	3,674
331,72	5,807
331,93	7,146
332,14	3,364
332,35	4,497
332,56	3,589
332,77	5,544
332,98	1,098
333,19	1,230
333,40	6,315
333,61	3,810
333,82	6,334
334,03	4,799
334,24	4,707
334,45	4,499
334,66	5,585
334,87	3,389
335,08	2,115
335,29	0,976
335,50	2,217
335,71	2,539
335,92	5,895
336,13	6,568
336,34	1,874
336,55	3,336
336,76	5,275
336,97	4,162
337,18	2,553
337,39	5,821
337,60	5,963
337,81	3,882
338,02	3,856
338,23	4,272
338,44	2,385
338,65	4,341
338,86	4,391
339,07	2,524
339,28	5,705
339,49	3,965
339,70	1,646
339,91	4,453
340,11	7,973
340,32	4,066
340,53	1,388
340,74	-1,021
340,95	2,263
341,16	4,739
341,37	2,196
341,58	-0,005
341,79	3,978
342,00	3,470
342,21	3,221
342,42	5,002
342,63	4,437
342,84	1,127
343,05	2,408
343,26	9,494
343,47	6,912
343,68	1,828
343,89	4,162
344,10	5,546
344,31	4,537
344,52	3,588
344,73	4,069
344,94	5,598
345,14	5,068
345,35	3,322
345,56	0,824
345,77	1,650
345,98	5,372
346,19	6,062
346,40	3,490
346,61	4,091
346,82	3,966
347,03	3,936
347,24	9,137
347,45	2,039
347,66	10,025
347,87	3,917
348,08	5,996
348,28	0,194
348,49	5,989
348,70	6,242
348,91	5,660
349,12	0,936
349,33	16,613
349,54	6,030
349,75	5,606
349,96	3,682
350,17	4,683
350,38	2,158
350,59	4,311
350,80	2,269
351,00	6,994
351,21	9,846
351,42	5,109
351,63	1,854
351,84	4,627
352,05	9,849
352,26	3,273
352,47	2,447
352,68	6,831
352,89	10,120
353,09	7,710
353,30	2,191
353,51	3,170
353,72	8,064
353,93	6,628
354,14	-1,331
354,35	4,562
354,56	5,977
354,77	5,208
354,98	1,490
355,18	7,782
355,39	10,848
355,60	3,026
355,81	5,715
356,02	7,456
356,23	3,935
356,44	1,734
356,65	5,168
356,85	9,586
357,06	9,643
357,27	7,815
357,48	0,594
357,69	6,479
357,90	5,729
358,11	0,749
358,32	4,619
358,52	8,213
358,73	7,705
358,94	4,633
359,15	4,176
359,36	6,409
359,57	5,183
359,78	6,751
359,98	4,138
360,19	0,446
360,40	6,605
360,61	7,353
360,82	5,288
361,03	12,174
361,24	9,312
361,44	5,107
361,65	2,659
361,86	3,802
362,07	5,005
362,28	2,882
362,49	-1,527
362,70	5,978
362,90	9,135
363,11	1,626
363,32	2,213
363,53	4,599
363,74	9,001
363,95	7,657
364,15	6,035
364,36	7,768
364,57	5,889
364,78	0,767
364,99	4,448
365,20	5,298
365,40	5,746
365,61	1,961
365,82	6,197
366,03	7,449
366,24	8,439
366,45	1,996
366,65	6,436
366,86	5,660
367,07	5,172
367,28	1,906
367,49	3,231
367,69	9,559
367,90	5,433
368,11	3,919
368,32	6,728
368,53	9,285
368,73	4,920
368,94	4,135
369,15	3,806
369,36	7,719
369,57	5,787
369,78	3,397
369,98	6,836
370,19	11,715
370,40	6,155
370,61	3,972
370,82	2,457
371,02	7,701
371,23	9,407
371,44	5,361
371,65	3,491
371,85	8,985
372,06	6,620
372,27	4,520
372,48	7,392
372,69	9,535
372,89	7,065
373,10	6,573
373,31	4,752
373,52	6,728
373,73	11,391
373,93	7,264
374,14	5,099
374,35	7,138
374,56	9,426
374,76	6,809
374,97	3,281
375,18	7,600
375,39	5,688
375,60	6,722
375,80	4,503
376,01	6,279
376,22	6,061
376,43	5,684
376,63	7,629
376,84	5,621
377,05	7,496
377,26	5,303
377,46	4,152
377,67	6,762
377,88	8,135
378,09	8,676
378,29	2,563
378,50	7,083
378,71	8,518
378,92	3,163
379,12	5,005
379,33	6,379
379,54	3,793
379,75	10,409
379,95	5,058
380,16	8,109
380,37	10,236
380,58	4,147
380,78	6,628
380,99	5,009
381,20	3,989
381,41	8,039
381,61	7,499
381,82	5,161
382,03	5,944
382,24	9,382
382,44	5,253
382,65	5,599
382,86	5,397
383,06	7,187
383,27	6,460
383,48	2,520
383,69	10,800
383,89	7,428
384,10	8,523
384,31	6,080
384,51	11,127
384,72	8,665
384,93	5,716
385,14	8,958
385,34	8,753
385,55	7,065
385,76	4,034
385,96	10,303
386,17	5,671
386,38	7,865
386,59	9,959
386,79	11,080
387,00	13,086
387,21	12,511
387,41	10,008
387,62	8,480
387,83	13,652
388,03	6,334
388,24	4,058
388,45	8,094
388,66	10,754
388,86	8,887
389,07	5,104
389,28	11,741
389,48	9,513
389,69	4,700
389,90	8,156
390,10	10,338
390,31	14,271
390,52	1,819
390,72	7,042
390,93	9,010
391,14	7,652
391,34	8,034
391,55	12,266
391,76	13,236
391,96	9,348
392,17	8,594
392,38	11,018
392,58	9,692
392,79	7,496
393,00	4,400
393,20	6,876
393,41	6,836
393,62	10,640
393,82	8,557
394,03	11,243
394,24	9,213
394,44	14,305
394,65	10,777
394,86	9,566
395,06	14,041
395,27	6,896
395,48	5,930
395,68	11,338
395,89	8,604
396,10	13,222
396,30	8,228
396,51	6,551
396,72	11,501
396,92	7,248
397,13	9,572
397,34	3,425
397,54	9,883
397,75	6,206
397,95	6,187
398,16	7,878
398,37	11,840
398,57	8,606
398,78	9,836
398,99	11,094
399,19	11,597
399,40	14,808
399,60	9,631
399,81	9,119
400,02	11,955
400,22	15,494
400,43	6,269
400,64	9,981
400,84	8,693
401,05	12,408
401,25	12,789
401,46	10,879
401,67	13,582
401,87	9,155
402,08	6,818
402,29	7,419
402,49	12,317
402,70	12,699
402,90	7,112
403,11	11,700
403,32	9,814
403,52	8,322
403,73	10,278
403,93	12,918
404,14	16,268
404,35	11,087
404,55	5,117
404,76	11,098
404,96	11,694
405,17	13,625
405,38	14,585
405,58	9,177
405,79	16,008
405,99	11,858
406,20	9,402
406,40	6,129
406,61	14,586
406,82	12,303
407,02	11,968
407,23	9,924
407,43	10,152
407,64	7,338
407,85	14,622
408,05	4,560
408,26	18,098
408,46	18,530
408,67	8,864
408,87	11,149
409,08	9,927
409,29	16,264
409,49	12,516
409,70	9,571
409,90	14,623
410,11	15,707
410,31	15,864
410,52	12,934
410,72	12,403
410,93	15,270
411,14	10,088
411,34	10,033
411,55	12,550
411,75	14,059
411,96	13,556
412,16	11,701
412,37	12,056
412,57	15,294
412,78	14,531
412,99	10,742
413,19	14,327
413,40	13,591
413,60	12,001
413,81	9,694
414,01	14,219
414,22	7,327
414,42	9,115
414,63	11,583
414,83	16,708
415,04	17,631
415,24	10,530
415,45	11,454
415,65	10,925
415,86	9,552
416,07	14,336
416,27	13,736
416,48	15,712
416,68	22,364
416,89	9,928
417,09	11,488
417,30	16,825
417,50	14,039
417,71	15,322
417,91	14,829
418,12	12,447
418,32	14,844
418,53	12,337
418,73	12,225
418,94	12,297
419,14	11,727
419,35	11,343
419,55	10,716
419,76	13,571
419,96	9,805
420,17	9,518
420,37	14,918
420,58	20,545
420,78	13,599
420,99	14,515
421,19	14,524
421,40	16,921
421,60	16,397
421,81	13,187
422,01	14,549
422,22	13,972
422,42	17,826
422,63	13,786
422,83	14,394
423,04	16,098
423,24	19,800
423,45	12,276
423,65	19,001
423,86	19,136
424,06	19,911
424,27	10,322
424,47	11,739
424,67	10,314
424,88	15,579
425,08	13,902
425,29	20,811
425,49	10,109
425,70	7,056
425,90	13,225
426,11	15,392
426,31	13,796
426,52	18,205
426,72	12,078
426,93	9,885
427,13	18,154
427,33	14,135
427,54	13,950
427,74	16,819
427,95	20,348
428,15	10,455
428,36	17,608
428,56	14,473
428,77	13,381
428,97	16,723
429,18	14,759
429,38	12,371
429,58	14,873
429,79	16,337
429,99	12,715
430,20	8,212
430,40	19,295
430,61	10,095
430,81	11,702
431,01	16,460
431,22	17,732
431,42	18,073
431,63	12,222
431,83	11,128
432,04	16,849
432,24	20,289
432,44	11,836
432,65	14,562
432,85	11,881
433,06	17,238
433,26	16,401
433,47	9,434
433,67	12,326
433,87	14,658
434,08	11,025
434,28	12,857
434,49	13,268
434,69	17,301
434,89	11,403
435,10	11,506
435,30	18,522
435,51	11,398
435,71	12,088
435,91	13,706
436,12	15,073
436,32	14,143
436,53	15,183
436,73	12,982
436,93	16,747
437,14	16,327
437,34	17,947
437,55	15,795
437,75	12,287
437,95	23,186
438,16	15,094
438,36	13,108
438,57	11,364
438,77	12,564
438,97	17,096
439,18	19,694
439,38	13,667
439,58	16,439
439,79	12,745
439,99	13,585
440,20	18,083
440,40	18,219
440,60	13,524
440,81	15,576
441,01	15,631
441,21	17,404
441,42	16,498
441,62	16,426
441,83	15,165
442,03	17,995
442,23	16,000
442,44	13,503
442,64	15,743
442,84	15,813
443,05	14,654
443,25	14,324
443,45	17,608
443,66	14,769
443,86	12,743
444,06	12,827
444,27	12,583
444,47	16,165
444,67	12,508
444,88	14,624
445,08	20,514
445,28	14,651
445,49	14,237
445,69	11,931
445,90	19,334
446,10	19,215
446,30	18,052
446,51	17,461
446,71	20,585
446,91	21,327
447,12	23,207
447,32	16,757
447,52	19,130
447,72	20,380
447,93	18,032
448,13	9,914
448,33	24,335
448,54	22,904
448,74	12,970
448,94	19,364
449,15	19,365
449,35	23,316
449,55	17,358
449,76	18,746
449,96	15,972
450,16	18,526
450,37	12,627
450,57	17,590
450,77	11,674
450,98	16,135
451,18	18,001
451,38	13,251
451,58	20,928
451,79	15,253
451,99	19,229
452,19	17,385
452,40	22,234
452,60	15,214
452,80	13,673
453,00	17,870
453,21	18,848
453,41	19,191
453,61	16,632
453,82	22,507
454,02	16,842
454,22	24,042
454,42	19,245
454,63	15,659
454,83	15,629
455,03	18,474
455,24	14,000
455,44	17,292
455,64	14,596
455,84	12,567
456,05	13,844
456,25	10,769
456,45	15,361
456,65	14,244
456,86	16,278
457,06	20,178
457,26	26,419
457,47	24,611
457,67	16,737
457,87	16,067
458,07	15,844
458,28	22,647
458,48	20,147
458,68	16,445
458,88	20,417
459,09	17,883
459,29	22,411
459,49	16,856
459,69	18,940
459,90	19,400
460,10	15,432
460,30	19,795
460,50	15,011
460,71	22,082
460,91	15,127
461,11	18,995
461,31	13,286
461,52	23,794
461,72	15,932
461,92	18,877
462,12	25,581
462,32	14,625
462,53	17,471
462,73	17,910
462,93	23,630
463,13	18,800
463,34	18,007
463,54	21,165
463,74	20,561
463,94	19,176
464,14	19,496
464,35	17,285
464,55	25,962
464,75	23,932
464,95	15,583
465,16	15,955
465,36	21,450
465,56	20,117
465,76	16,271
465,96	13,939
466,17	15,804
466,37	15,881
466,57	21,220
466,77	19,499
466,97	15,793
467,18	26,219
467,38	20,009
467,58	20,106
467,78	25,330
467,98	20,530
468,19	21,746
468,39	22,031
468,59	21,601
468,79	22,157
468,99	16,976
469,19	16,169
469,40	19,459
469,60	17,941
469,80	14,447
470,00	19,261
470,20	20,704
470,41	20,155
470,61	22,366
470,81	20,959
471,01	17,846
471,21	19,192
471,41	16,009
471,62	17,496
471,82	16,957
472,02	17,205
472,22	19,307
472,42	18,753
472,62	25,831
472,83	18,759
473,03	23,667
473,23	18,332
473,43	23,069
473,63	19,688
473,83	20,528
474,03	20,634
474,24	27,011
474,44	21,039
474,64	20,925
474,84	16,972
475,04	18,439
475,24	23,178
475,45	19,671
475,65	20,304
475,85	21,521
476,05	13,075
476,25	21,281
476,45	21,235
476,65	27,230
476,85	24,995
477,06	19,356
477,26	18,054
477,46	21,659
477,66	22,294
477,86	25,480
478,06	18,369
478,26	28,355
478,46	20,368
478,67	20,312
478,87	19,442
479,07	19,960
479,27	24,524
479,47	20,115
479,67	16,316
479,87	19,618
480,07	21,987
480,28	19,321
480,48	18,147
480,68	25,723
480,88	27,425
481,08	21,285
481,28	22,965
481,48	24,275
481,68	22,351
481,88	17,231
482,08	19,286
482,29	22,820
482,49	16,117
482,69	20,787
482,89	18,058
483,09	25,783
483,29	21,172
483,49	18,522
483,69	21,215
483,89	18,548
484,09	17,727
484,29	17,834
484,50	22,185
484,70	22,241
484,90	22,350
485,10	19,435
485,30	22,442
485,50	24,778
485,70	21,994
485,90	18,028
486,10	18,405
486,30	19,462
486,50	20,812
486,70	19,983
486,90	20,801
487,10	23,152
487,30	18,798
487,51	21,551
487,71	19,740
487,91	23,390
488,11	23,996
488,31	18,155
488,51	22,424
488,71	18,591
488,91	22,335
489,11	19,277
489,31	20,474
489,51	21,722
489,71	21,278
489,91	23,091
490,11	19,108
490,31	22,334
490,51	24,037
490,71	21,843
490,91	19,331
491,11	21,879
491,31	21,882
491,51	17,051
491,72	20,675
491,92	23,330
492,12	26,774
492,32	23,378
492,52	22,115
492,72	22,407
492,92	21,427
493,12	25,775
493,32	19,879
493,52	17,858
493,72	23,976
493,92	22,423
494,12	23,107
494,32	24,753
494,52	21,929
494,72	21,984
494,92	20,307
495,12	25,435
495,32	25,491
495,52	20,141
495,72	21,073
495,92	24,664
496,12	24,046
496,32	17,403
496,52	21,423
496,72	23,896
496,92	23,806
497,12	20,798
497,32	24,494
497,52	24,579
497,72	23,891
497,92	22,532
498,12	22,437
498,32	22,830
498,52	24,527
498,72	18,723
498,92	19,734
499,12	25,345
499,32	22,302
499,52	22,193
499,72	22,829
499,92	24,957
500,12	24,909
500,32	22,636
500,52	20,716
500,72	28,273
500,91	24,803
501,11	22,249
501,31	17,595
501,51	26,886
501,71	26,527
501,91	23,726
502,11	22,394
502,31	24,469
502,51	26,988
502,71	23,623
502,91	22,740
503,11	24,429
503,31	24,168
503,51	21,663
503,71	23,801
503,91	25,957
504,11	26,512
504,31	22,651
504,51	22,229
504,71	28,199
504,91	23,339
505,10	22,499
505,30	23,725
505,50	26,669
505,70	22,033
505,90	23,035
506,10	22,565
506,30	24,898
506,50	26,755
506,70	27,200
506,90	21,614
507,10	24,190
507,30	22,493
507,50	23,058
507,70	22,552
507,89	24,286
508,09	22,208
508,29	24,093
508,49	23,270
508,69	21,435
508,89	21,465
509,09	20,791
509,29	22,024
509,49	28,154
509,69	28,598
509,89	23,788
510,09	22,729
510,28	25,841
510,48	23,926
510,68	20,736
510,88	22,538
511,08	22,856
511,28	23,519
511,48	21,408
511,68	22,152
511,88	18,554
512,07	23,462
512,27	24,359
512,47	24,583
512,67	22,545
512,87	21,200
513,07	23,398
513,27	20,616
513,47	24,293
513,67	20,659
513,86	24,899
514,06	21,677
514,26	24,235
514,46	26,650
514,66	22,786
514,86	24,187
515,06	29,370
515,26	25,088
515,45	23,445
515,65	20,977
515,85	25,877
516,05	23,859
516,25	23,331
516,45	25,340
516,65	20,874
516,84	22,879
517,04	23,977
517,24	23,294
517,44	24,102
517,64	26,501
517,84	25,305
518,04	24,825
518,23	28,355
518,43	29,194
518,63	22,788
518,83	21,235
519,03	22,080
519,23	22,463
519,42	22,962
519,62	19,111
519,82	20,871
520,02	23,950
520,22	20,284
520,42	21,118
520,61	23,829
520,81	27,507
521,01	26,375
521,21	21,559
521,41	22,103
521,61	26,844
521,80	22,068
522,00	21,184
522,20	26,050
522,40	25,157
522,60	21,191
522,79	19,593
522,99	26,066
523,19	22,632
523,39	24,583
523,59	23,678
523,78	25,688
523,98	20,575
524,18	24,280
524,38	21,603
524,58	24,263
524,77	26,349
524,97	23,400
525,17	23,714
525,37	23,195
525,57	30,312
525,76	23,462
525,96	23,281
526,16	23,591
526,36	21,996
526,56	21,924
526,75	20,568
526,95	25,744
527,15	23,966
527,35	24,245
527,55	19,698
527,74	25,693
527,94	19,836
528,14	22,459
528,34	21,018
528,53	23,786
528,73	24,865
528,93	24,638
529,13	22,539
529,32	23,733
529,52	22,904
529,72	21,349
529,92	24,032
530,12	23,430
530,31	20,890
530,51	24,785
530,71	23,582
530,91	25,955
531,10	19,195
531,30	21,015
531,50	21,040
531,70	26,263
531,89	23,678
532,09	21,890
532,29	19,879
532,49	23,658
532,68	22,363
532,88	21,067
533,08	20,953
533,28	21,289
533,47	21,884
533,67	21,748
533,87	20,129
534,06	26,165
534,26	23,836
534,46	19,794
534,66	21,547
534,85	23,552
535,05	18,390
535,25	20,491
535,45	17,209
535,64	24,314
535,84	20,869
536,04	19,443
536,23	22,117
536,43	25,468
536,63	21,874
536,83	23,051
537,02	22,566
537,22	18,368
537,42	20,058
537,61	21,554
537,81	24,625
538,01	22,412
538,20	21,669
538,40	18,493
538,60	21,530
538,80	19,214
538,99	24,469
539,19	20,763
539,39	18,422
539,58	22,013
539,78	18,700
539,98	18,954
540,17	16,319
540,37	18,466
540,57	16,690
540,76	17,315
540,96	17,398
541,16	18,987
541,36	15,613
541,55	14,176
541,75	14,961
541,95	15,659
542,14	15,235
542,34	13,665
542,54	13,380
542,73	16,316
542,93	16,667
543,13	15,102
543,32	14,241
543,52	15,362
543,72	12,778
543,91	14,503
544,11	14,498
544,31	13,893
544,50	14,961
544,70	15,344
544,89	14,020
545,09	18,137
545,29	15,195
545,48	14,382
545,68	14,319
545,88	17,364
546,07	15,844
546,27	14,719
546,47	16,392
546,66	17,946
546,86	17,392
547,06	17,150
547,25	18,277
547,45	20,500
547,64	17,962
547,84	20,144
548,04	18,440
548,23	20,577
548,43	20,264
548,63	20,199
548,82	23,410
549,02	19,962
549,21	18,915
549,41	19,902
549,61	19,167
549,80	20,874
550,00	21,161
550,20	18,834
550,39	21,295
550,59	19,361
550,78	19,280
550,98	17,071
551,18	20,342
551,37	20,164
551,57	21,963
551,76	21,144
551,96	21,117
552,16	19,193
552,35	23,072
552,55	20,093
552,74	19,547
552,94	23,480
553,14	21,138
553,33	20,357
553,53	18,242
553,72	20,068
553,92	24,858
554,12	17,608
554,31	22,164
554,51	22,621
554,70	18,493
554,90	21,118
555,09	23,456
555,29	23,155
555,49	23,040
555,68	23,785
555,88	19,520
556,07	20,997
556,27	24,457
556,46	22,331
556,66	19,243
556,86	23,728
557,05	23,866
557,25	19,761
557,44	22,890
557,64	20,942
557,83	19,798
558,03	22,032
558,22	18,807
558,42	22,840
558,62	25,315
558,81	22,047
559,01	20,401
559,20	20,679
559,40	19,335
559,59	19,603
559,79	19,128
559,98	21,481
560,18	23,652
560,37	21,419
560,57	23,231
560,76	20,084
560,96	18,978
561,16	22,801
561,35	21,994
561,55	24,072
561,74	22,219
561,94	23,849
562,13	20,705
562,33	22,986
562,52	20,777
562,72	21,711
562,91	19,686
563,11	24,311
563,30	22,460
563,50	19,078
563,69	19,262
563,89	18,319
564,08	20,585
564,28	21,674
564,47	21,028
564,67	21,797
564,86	22,843
565,06	20,391
565,25	21,887
565,45	21,712
565,64	23,430
565,84	19,802
566,03	20,776
566,23	21,306
566,42	22,865
566,62	21,368
566,81	21,092
567,01	18,962
567,20	23,084
567,40	18,731
567,59	19,917
567,79	24,058
567,98	23,765
568,18	21,725
568,37	21,472
568,57	22,894
568,76	22,920
568,96	21,032
569,15	19,755
569,35	21,768
569,54	26,161
569,73	22,733
569,93	19,965
570,12	21,035
570,32	22,234
570,51	22,365
570,71	21,609
570,90	25,181
571,10	22,042
571,29	21,788
571,49	18,546
571,68	23,150
571,87	22,442
572,07	22,218
572,26	18,804
572,46	22,263
572,65	21,641
572,85	18,271
573,04	21,550
573,24	19,529
573,43	23,640
573,62	23,819
573,82	23,113
574,01	21,499
574,21	20,762
574,40	18,635
574,60	19,467
574,79	23,995
574,98	20,441
575,18	21,628
575,37	19,119
575,57	22,688
575,76	21,904
575,96	21,119
576,15	19,452
576,34	20,794
576,54	21,778
576,73	22,689
576,93	21,763
577,12	21,895
577,31	21,742
577,51	20,480
577,70	20,915
577,90	21,538
578,09	20,443
578,28	20,215
578,48	20,100
578,67	22,256
578,87	22,237
579,06	19,896
579,25	22,727
579,45	21,886
579,64	20,846
579,84	19,708
580,03	20,011
580,22	22,408
580,42	20,373
580,61	20,993
580,81	21,300
581,00	22,088
581,19	21,231
581,39	20,804
581,58	20,838
581,77	19,330
581,97	24,416
582,16	20,745
582,35	20,264
582,55	20,691
582,74	23,631
582,94	20,538
583,13	19,466
583,32	20,505
583,52	20,478
583,71	22,376
583,90	19,007
584,10	21,719
584,29	23,810
584,48	18,602
584,68	20,678
584,87	22,726
585,06	20,692
585,26	18,963
585,45	20,787
585,65	21,573
585,84	19,308
586,03	20,095
586,23	18,286
586,42	20,673
586,61	23,058
586,81	22,050
587,00	20,622
587,19	20,006
587,39	24,863
587,58	21,908
587,77	20,473
587,97	19,946
588,16	20,441
588,35	20,419
588,54	21,235
588,74	19,897
588,93	23,965
589,12	21,188
589,32	19,585
589,51	20,352
589,70	19,078
589,90	19,950
590,09	18,851
590,28	24,444
590,48	19,726
590,67	20,219
590,86	21,624
591,06	21,528
591,25	23,899
591,44	21,134
591,63	20,975
591,83	23,490
592,02	21,664
592,21	19,567
592,41	19,460
592,60	22,091
592,79	21,381
592,98	21,182
593,18	20,694
593,37	21,460
593,56	21,051
593,76	23,430
593,95	20,937
594,14	19,258
594,33	24,626
594,53	20,382
594,72	19,873
594,91	23,435
595,10	20,657
595,30	20,711
595,49	20,783
595,68	23,776
595,88	23,424
596,07	19,658
596,26	21,093
596,45	21,410
596,65	17,779
596,84	20,337
597,03	21,361
597,22	23,736
597,42	24,266
597,61	21,257
597,80	21,860
597,99	22,022
598,19	22,416
598,38	22,252
598,57	20,705
598,76	21,767
598,95	23,159
599,15	22,350
599,34	21,131
599,53	22,712
599,72	22,544
599,92	23,110
600,11	20,402
600,30	23,918
600,49	25,106
600,69	19,623
600,88	22,478
601,07	22,729
601,26	23,491
601,45	22,012
601,65	20,774
601,84	22,632
602,03	20,465
602,22	22,521
602,42	23,905
602,61	22,351
602,80	22,414
602,99	21,919
603,18	20,678
603,38	22,571
603,57	22,165
603,76	21,447
603,95	20,199
604,14	22,160
604,34	21,941
604,53	21,720
604,72	22,644
604,91	22,629
605,10	22,069
605,29	21,943
605,49	20,414
605,68	21,439
605,87	24,251
606,06	21,110
606,25	19,691
606,45	21,058
606,64	21,360
606,83	21,929
607,02	22,364
607,21	23,425
607,40	21,840
607,60	19,617
607,79	20,359
607,98	19,436
608,17	21,021
608,36	21,338
608,55	20,933
608,75	21,583
608,94	21,907
609,13	18,273
609,32	16,709
609,51	19,794
609,70	17,307
609,89	20,121
610,09	17,396
610,28	20,673
610,47	19,007
610,66	17,035
610,85	16,123
611,04	19,811
611,23	18,273
611,43	17,266
611,62	17,076
611,81	17,177
612,00	17,351
612,19	16,735
612,38	17,680
612,57	18,941
612,77	18,776
612,96	18,468
613,15	18,561
613,34	19,818
613,53	19,444
613,72	19,916
613,91	20,013
614,10	18,458
614,29	22,335
614,49	18,388
614,68	18,495
614,87	20,259
615,06	22,076
615,25	19,555
615,44	21,545
615,63	21,172
615,82	19,960
616,01	20,418
616,21	21,098
616,40	23,429
616,59	23,724
616,78	20,523
616,97	20,946
617,16	20,685
617,35	23,201
617,54	20,225
617,73	22,532
617,92	21,486
618,11	23,964
618,31	18,997
618,50	22,073
618,69	21,323
618,88	21,894
619,07	19,593
619,26	19,458
619,45	21,125
619,64	19,417
619,83	19,751
620,02	20,334
620,21	24,142
620,40	21,018
620,59	20,494
620,78	19,670
620,97	20,932
621,17	23,731
621,36	20,346
621,55	20,286
621,74	21,297
621,93	21,283
622,12	19,918
622,31	21,309
622,50	20,706
622,69	24,571
622,88	21,719
623,07	24,659
623,26	23,265
623,45	24,621
623,64	20,251
623,83	20,531
624,02	23,996
624,21	22,340
624,40	23,387
624,59	18,720
624,78	21,409
624,97	23,943
625,16	19,180
625,35	19,542
625,54	20,157
625,73	21,180
625,92	19,536
626,12	22,001
626,31	23,901
626,50	23,195
626,69	21,025
626,88	20,301
627,07	22,445
627,26	20,494
627,45	20,942
627,64	19,882
627,83	22,718
628,02	20,050
628,21	22,035
628,40	20,037
628,59	22,603
628,78	19,696
628,97	20,900
629,16	21,109
629,35	22,363
629,54	23,836
629,73	20,255
629,92	20,158
630,10	21,433
630,29	23,548
630,48	20,659
630,67	19,064
630,86	21,447
631,05	23,013
631,24	22,380
631,43	19,417
631,62	22,670
631,81	19,867
632,00	20,889
632,19	19,547
632,38	21,609
632,57	17,503
632,76	18,639
632,95	21,587
633,14	22,650
633,33	21,815
633,52	21,987
633,71	22,449
633,90	19,989
634,09	21,938
634,28	22,225
634,47	20,840
634,66	21,299
634,85	22,146
635,04	22,457
635,22	20,772
635,41	22,032
635,60	22,640
635,79	23,520
635,98	18,247
636,17	22,123
636,36	20,147
636,55	21,083
636,74	20,251
636,93	23,248
637,12	22,412
637,31	19,975
637,50	19,318
637,69	22,213
637,87	23,362
638,06	20,308
638,25	21,613
638,44	20,678
638,63	18,675
638,82	21,218
639,01	21,091
639,20	21,453
639,39	23,478
639,58	18,946
639,77	22,059
639,95	20,784
640,14	24,468
640,33	20,412
640,52	19,616
640,71	23,776
640,90	21,954
641,09	22,104
641,28	20,489
641,47	22,992
641,66	22,290
641,84	22,036
642,03	18,940
642,22	21,939
642,41	24,651
642,60	22,151
642,79	20,833
642,98	21,904
643,17	20,129
643,35	18,503
643,54	19,883
643,73	23,433
643,92	22,281
644,11	20,134
644,30	20,198
644,49	23,972
644,67	20,815
644,86	20,869
645,05	23,438
645,24	19,481
645,43	20,747
645,62	22,305
645,81	21,618
645,99	23,835
646,18	22,090
646,37	19,917
646,56	20,592
646,75	23,045
646,94	23,579
647,13	20,852
647,31	20,888
647,50	22,083
647,69	24,099
647,88	21,727
648,07	21,734
648,26	26,229
648,44	22,564
648,63	20,887
648,82	20,040
649,01	23,058
649,20	21,727
649,38	21,069
649,57	20,632
649,76	21,313
649,95	21,643
650,14	19,823
650,33	19,254
650,51	20,571
650,70	21,437
650,89	20,163
651,08	20,621
651,27	21,938
651,45	19,770
651,64	19,779
651,83	21,922
652,02	21,224
652,21	21,467
652,39	22,651
652,58	23,792
652,77	22,609
652,96	21,886
653,15	22,682
653,33	21,036
653,52	21,981
653,71	24,273
653,90	22,698
654,09	21,650
654,27	22,121
654,46	24,187
654,65	19,841
654,84	22,633
655,02	24,163
655,21	23,028
655,40	23,750
655,59	22,818
655,77	23,534
655,96	21,889
656,15	23,298
656,34	23,659
656,53	23,693
656,71	22,856
656,90	22,684
657,09	23,488
657,28	23,509
657,46	21,029
657,65	22,442
657,84	22,986
658,03	23,070
658,21	22,171
658,40	20,066
658,59	21,272
658,78	21,702
658,96	20,903
659,15	21,635
659,34	21,820
659,52	22,023
659,71	22,107
659,90	20,037
660,09	21,369
660,27	21,215
660,46	22,988
660,65	20,381
660,84	19,431
661,02	21,638
661,21	22,120
661,40	22,681
661,58	20,587
661,77	23,639
661,96	18,867
662,15	20,630
662,33	20,476
662,52	21,524
662,71	21,996
662,89	20,299
663,08	19,895
663,27	20,497
663,45	20,663
663,64	19,847
663,83	20,105
664,02	20,104
664,20	23,573
664,39	19,598
664,58	21,936
664,76	22,077
664,95	21,233
665,14	19,840
665,32	19,585
665,51	21,129
665,70	21,715
665,88	22,696
666,07	21,336
666,26	23,809
666,44	21,450
666,63	19,139
666,82	20,686
667,00	22,809
667,19	19,490
667,38	21,466
667,56	22,098
667,75	22,436
667,94	22,992
668,12	19,294
668,31	22,550
668,50	21,517
668,68	22,059
668,87	21,446
669,06	20,561
669,24	22,452
669,43	20,917
669,62	19,716
669,80	19,441
669,99	21,523
670,18	20,792
670,36	20,454
670,55	21,143
670,74	22,198
670,92	18,591
671,11	22,088
671,29	20,652
671,48	20,757
671,67	21,035
671,85	22,585
672,04	18,732
672,23	19,284
672,41	22,076
672,60	20,647
672,78	20,046
672,97	20,616
673,16	22,065
673,34	20,268
673,53	19,008
673,71	21,828
673,90	23,370
674,09	20,410
674,27	19,493
674,46	21,660
674,64	22,279
674,83	19,828
675,02	18,544
675,20	21,505
675,39	20,635
675,57	20,556
675,76	20,110
675,95	23,244
676,13	21,884
676,32	20,866
676,50	20,550
676,69	19,081
676,88	20,812
677,06	19,766
677,25	20,361
677,43	23,942
677,62	21,208
677,80	20,447
677,99	20,667
678,18	22,347
678,36	23,449
678,55	18,644
678,73	19,587
678,92	20,851
679,10	21,250
679,29	21,064
679,48	19,461
679,66	21,232
679,85	20,175
680,03	19,695
680,22	20,671
680,40	20,555
680,59	20,286
680,77	20,775
680,96	20,720
681,15	20,537
681,33	23,860
681,52	20,437
681,70	21,369
681,89	23,758
682,07	22,300
682,26	20,280
682,44	21,220
682,63	22,141
682,81	21,582
683,00	22,316
683,18	18,565
683,37	23,164
683,55	21,324
683,74	21,558
683,92	27,524
684,11	21,245
684,29	20,957
684,48	18,729
684,67	20,381
684,85	21,817
685,04	21,334
685,22	21,535
685,41	20,649
685,59	22,081
685,78	20,487
685,96	21,008
686,15	21,285
686,33	19,954
686,52	20,988
686,70	20,452
686,89	21,709
687,07	22,846
687,26	21,654
687,44	21,789
687,62	20,256
687,81	21,824
687,99	21,858
688,18	20,105
688,36	20,927
688,55	22,665
688,73	21,633
688,92	19,423
689,10	22,359
689,29	23,112
689,47	23,142
689,66	19,963
689,84	20,304
690,03	23,711
690,21	20,906
690,40	20,482
690,58	20,102
690,76	19,668
690,95	22,516
691,13	20,409
691,32	22,526
691,50	22,316
691,69	23,189
691,87	20,853
692,06	20,350
692,24	19,735
692,43	20,399
692,61	20,767
692,79	20,050
692,98	20,726
693,16	22,742
693,35	19,319
693,53	21,327
693,72	21,058
693,90	22,247
694,08	19,409
694,27	20,269
694,45	24,544
694,64	24,606
694,82	20,710
695,01	19,730
695,19	19,582
695,37	21,029
695,56	19,790
695,74	21,637
695,93	21,304
696,11	20,584
696,29	22,042
696,48	21,817
696,66	22,151
696,85	23,267
697,03	18,504
697,21	22,801
697,40	22,564
697,58	21,185
697,77	20,173
697,95	21,760
698,13	21,424
698,32	21,131
698,50	21,163
698,69	19,064
698,87	21,459
699,05	22,482
699,24	20,114
699,42	21,687
699,60	18,904
699,79	21,692
699,97	21,107
700,16	20,369
700,34	24,457
700,52	21,556
700,71	19,411
700,89	19,606
701,07	21,284
701,26	21,965
701,44	21,191
701,63	19,031
701,81	22,274
701,99	21,760
702,18	19,043
702,36	19,959
702,54	22,741
702,73	20,537
702,91	20,081
703,09	20,517
703,28	21,314
703,46	22,453
703,64	21,789
703,83	21,748
704,01	22,165
704,19	19,787
704,38	18,725
704,56	20,287
704,74	22,013
704,93	20,044
705,11	20,081
705,29	21,936
705,48	27,705
705,66	22,922
705,84	21,360
706,03	18,703
706,21	22,179
706,39	20,477
706,58	20,783
706,76	19,056
706,94	24,308
707,12	21,908
707,31	20,294
707,49	19,357
707,67	21,757
707,86	24,256
708,04	21,596
708,22	19,905
708,41	21,563
708,59	21,480
708,77	17,907
708,95	20,819
709,14	23,961
709,32	22,409
709,50	18,384
709,69	20,975
709,87	21,102
710,05	21,582
710,23	20,756
710,42	19,728
710,60	20,612
710,78	23,116
710,97	21,522
711,15	20,713
711,33	23,991
711,51	20,507
711,70	19,719
711,88	18,784
712,06	24,543
712,24	22,299
712,43	21,370
712,61	18,694
712,79	21,202
712,97	19,795
713,16	20,754
713,34	19,007
713,52	22,358
713,70	21,340
713,89	19,545
714,07	21,365
714,25	22,288
714,43	22,230
714,62	19,079
714,80	21,323
714,98	19,503
715,16	20,446
715,35	19,712
715,53	20,208
715,71	20,796
715,89	23,569
716,07	21,858
716,26	24,905
716,44	22,137
716,62	21,778
716,80	19,395
716,99	19,899
717,17	21,773
717,35	21,050
717,53	20,176
717,71	19,561
717,90	20,892
718,08	20,448
718,26	17,525
718,44	23,480
718,62	22,954
718,81	23,358
718,99	20,157
719,17	19,641
719,35	21,052
719,53	21,014
719,72	19,825
719,90	21,795
720,08	20,279
720,26	22,608
720,44	19,212
720,62	19,457
720,81	23,176
720,99	24,403
721,17	19,390
721,35	21,790
721,53	21,539
721,72	23,811
721,90	20,978
722,08	19,364
722,26	25,648
722,44	21,432
722,62	20,572
722,81	19,561
722,99	21,853
723,17	21,019
723,35	21,941
723,53	20,643
723,71	24,384
723,89	24,499
724,08	18,191
724,26	19,441
724,44	21,043
724,62	22,354
724,80	19,994
724,98	20,246
725,16	23,093
725,35	21,381
725,53	20,932
725,71	21,064
725,89	22,547
726,07	23,559
726,25	23,995
726,43	18,496
726,61	23,839
726,80	23,799
726,98	21,170
727,16	19,131
727,34	23,674
727,52	20,917
727,70	19,931
727,88	20,041
728,06	19,164
728,25	20,098
728,43	19,879
728,61	20,282
728,79	21,348
728,97	20,657
729,15	19,474
729,33	20,951
729,51	22,871
729,69	22,183
729,87	19,799
730,06	20,409
730,24	23,515
730,42	24,552
730,60	18,009
730,78	22,188
730,96	21,831
731,14	23,897
731,32	20,213
731,50	19,089
731,68	22,143
731,86	22,034
732,04	21,683
732,22	19,106
732,41	23,949
732,59	22,544
732,77	21,371
732,95	24,578
733,13	24,228
733,31	23,421
733,49	18,281
733,67	22,252
733,85	22,812
734,03	21,178
734,21	20,366
734,39	21,972
734,57	22,734
734,75	22,478
734,93	18,415
735,11	22,907
735,29	19,611
735,47	21,775
735,65	19,451
735,84	19,163
736,02	22,579
736,20	23,880
736,38	21,097
736,56	20,699
736,74	23,258
736,92	20,954
737,10	20,488
737,28	21,884
737,46	20,215
737,64	21,297
737,82	20,616
738,00	20,892
738,18	22,361
738,36	24,050
738,54	20,541
738,72	20,322
738,90	22,759
739,08	22,855
739,26	18,680
739,44	23,076
739,62	22,240
739,80	22,809
739,98	20,048
740,16	18,612
740,34	21,333
740,52	22,565
740,70	20,599
740,88	19,619
741,06	21,337
741,24	22,150
741,42	21,403
741,60	20,008
741,78	22,985
741,96	21,523
742,14	19,057
742,32	18,575
742,50	21,349
742,68	22,159
742,86	20,558
743,04	18,568
743,21	24,574
743,39	23,326
743,57	19,017
743,75	20,330
743,93	17,920
744,11	17,031
744,29	20,346
744,47	20,897
744,65	21,455
744,83	19,123
745,01	20,955
745,19	20,859
745,37	24,436
745,55	21,448
745,73	21,492
745,91	19,664
746,09	22,110
746,27	19,724
746,45	17,778
746,62	20,252
746,80	20,882
746,98	23,254
747,16	19,825
747,34	22,636
747,52	20,874
747,70	22,932
747,88	20,578
748,06	20,069
748,24	21,294
748,42	23,101
748,60	19,235
748,78	19,488
748,95	23,002
749,13	24,225
749,31	20,908
749,49	20,833
749,67	22,249
749,85	22,831
750,03	21,935
750,21	20,660
750,39	21,040
750,57	22,496
750,74	21,691
750,92	19,659
751,10	21,534
751,28	21,142
751,46	22,470
751,64	21,542
751,82	23,229
752,00	21,123
752,17	22,067
752,35	18,830
752,53	22,133
752,71	22,571
752,89	21,518
753,07	21,272
753,25	22,106
753,43	19,237
753,60	21,356
753,78	19,961
753,96	24,100
754,14	22,702
754,32	21,981
754,50	23,018
754,68	23,081
754,85	22,706
755,03	22,342
755,21	20,765
755,39	24,597
755,57	22,332
755,75	19,185
755,92	19,672
756,10	22,442
756,28	22,598
756,46	18,904
756,64	21,137
756,82	20,701
756,99	21,532
757,17	21,958
757,35	18,254
757,53	25,085
757,71	24,640
757,89	19,440
758,06	22,654
758,24	24,515
758,42	21,809
758,60	19,653
758,78	20,684
758,95	21,849
759,13	23,210
759,31	19,476
759,49	19,442
759,67	21,477
759,84	21,388
760,02	20,476
760,20	20,654
760,38	23,150
760,56	20,400
760,73	21,289
760,91	20,571
761,09	22,919
761,27	20,412
761,45	19,945
761,62	21,594
761,80	22,513
761,98	23,019
762,16	20,808
762,33	20,707
762,51	23,406
762,69	20,639
762,87	21,025
763,05	22,313
763,22	20,135
763,40	21,716
763,58	20,763
763,76	21,232
763,93	23,403
764,11	25,209
764,29	21,178
764,47	20,685
764,64	21,793
764,82	23,225
765,00	20,038
765,18	19,522
765,35	19,457
765,53	21,702
765,71	19,713
765,89	20,752
766,06	18,896
766,24	22,116
766,42	22,156
766,60	21,123
766,77	20,110
766,95	20,179
767,13	22,514
767,30	21,015
767,48	20,433
767,66	21,032
767,84	20,966
768,01	18,278
768,19	22,624
768,37	20,162
768,54	20,275
768,72	21,958
768,90	22,201
769,08	21,605
769,25	20,743
769,43	20,011
769,61	18,413
769,78	23,385
769,96	22,126
770,14	24,660
770,31	25,680
770,49	23,717
770,67	22,155
770,85	20,434
771,02	23,464
771,20	20,176
771,38	22,033
771,55	22,660
771,73	19,610
771,91	21,118
772,08	22,687
772,26	22,398
772,44	22,332
772,61	21,449
772,79	21,238
772,97	22,554
773,14	18,910
773,32	20,314
773,50	20,172
773,67	21,908
773,85	23,168
774,03	19,665
774,20	20,293
774,38	20,888
774,56	20,997
774,73	19,577
774,91	20,005
775,09	21,770
775,26	22,266
775,44	22,980
775,61	23,267
775,79	20,996
775,97	24,051
776,14	22,160
776,32	22,250
776,50	22,165
776,67	23,736
776,85	22,378
777,03	20,204
777,20	18,441
777,38	24,672
777,55	22,961
777,73	16,958
777,91	19,557
778,08	22,553
778,26	21,978
778,43	24,508
778,61	17,716
778,79	20,547
778,96	23,093
779,14	21,401
779,32	22,581
779,49	19,520
779,67	25,689
779,84	21,738
780,02	23,350
780,20	17,802
780,37	25,059
780,55	17,237
780,72	24,127
780,90	24,318
781,07	22,597
781,25	22,011
781,43	21,357
781,60	20,709
781,78	22,184
781,95	21,619
782,13	23,285
782,30	25,992
782,48	23,975
782,66	18,178
782,83	18,241
783,01	28,214
783,18	22,019
783,36	23,095
783,53	22,519
783,71	20,022
783,89	20,310
784,06	21,836
784,24	20,526
784,41	24,275
784,59	20,135
784,76	21,488
784,94	20,314
785,11	22,837
785,29	19,684
785,46	20,797
785,64	18,236
785,82	21,464
785,99	25,250
786,17	21,109
786,34	20,048
786,52	22,324
786,69	22,502
786,87	20,598
787,04	19,790
787,22	19,987
787,39	22,019
787,57	24,123
787,74	19,948
787,92	24,660
788,09	24,913
788,27	21,369
788,44	18,633
788,62	25,390
788,79	21,863
788,97	24,279
789,14	23,516
789,32	23,263
789,49	23,397
789,67	21,514
789,84	22,686
790,02	24,919
790,19	21,769
790,37	21,172
790,54	26,097
790,72	27,129
790,89	23,434
791,07	23,788
791,24	17,772
791,42	22,681
791,59	24,426
791,77	22,050
791,94	20,489
792,12	21,312
792,29	21,757
792,47	23,352
792,64	24,618
792,81	26,508
792,99	23,268
793,16	22,848
793,34	24,333
793,51	23,470
793,69	24,572
793,86	20,268
794,04	21,963
794,21	23,820
794,39	19,251
794,56	24,743
794,73	21,485
794,91	27,160
795,08	23,494
795,26	20,704
795,43	20,671
795,61	26,627
795,78	26,537
795,95	23,647
796,13	25,818
796,30	25,036
796,48	22,555
796,65	20,286
796,83	21,526
797,00	26,204
797,17	20,774
797,35	21,960
797,52	21,744
797,70	27,141
797,87	22,553
798,04	19,465
798,22	21,565
798,39	22,598
798,57	21,566
798,74	21,448
798,91	21,039
799,09	19,872
799,26	27,589
799,44	23,814
799,61	20,571
799,78	25,271
799,96	26,450
800,13	20,367
800,31	22,685
800,48	26,558
800,65	30,129
800,83	24,981
801,00	21,007
801,17	22,781
801,35	26,090
801,52	24,399
801,70	22,762
801,87	23,999
802,04	25,175
802,22	19,742
802,39	22,917
802,56	27,925
802,74	27,821
802,91	22,475
803,08	19,807
803,26	24,223
803,43	28,492
803,61	19,335
803,78	22,398
803,95	23,547
804,13	26,972
804,30	21,688
804,47	26,662
804,65	24,208
804,82	25,751
804,99	23,957
805,17	22,619
805,34	27,382
805,51	29,467
805,69	20,394
805,86	21,870
806,03	30,334
806,21	27,170
806,38	22,068
806,55	27,170
806,72	31,271
806,90	27,936
807,07	20,475
807,24	24,417
807,42	23,483
807,59	30,245
807,76	18,534
807,94	21,443
808,11	25,133
808,28	28,227
808,45	22,027
808,63	25,380
808,80	29,342
808,97	23,957
809,15	19,847
809,32	24,838
809,49	21,131
809,67	24,538
809,84	25,333
810,01	24,905
810,18	32,586
810,36	26,225
810,53	25,697
810,70	25,608
810,87	30,193
811,05	24,437
811,22	25,452
811,39	22,075
811,57	26,694
811,74	26,219
811,91	20,964
812,08	25,076
812,26	28,759
812,43	21,687
812,60	26,549
812,77	24,182
812,95	28,577
813,12	28,495
813,29	17,143
813,46	26,451
813,64	29,960
813,81	26,943
813,98	19,187
814,15	26,829
814,32	31,266
814,50	26,870
814,67	23,929
814,84	22,499
815,01	27,221
815,19	18,623
815,36	18,859
815,53	22,299
815,70	23,591
815,87	29,601
816,05	19,942
816,22	23,919
816,39	31,467
816,56	32,396
816,74	25,935
816,91	23,402
817,08	36,103
817,25	28,651
817,42	23,585
817,60	25,335
817,77	30,333
817,94	24,832
818,11	27,319
818,28	24,180
818,45	26,759
818,63	26,164
818,80	26,810
818,97	25,507
819,14	33,746
819,31	31,781
819,49	28,254
819,66	21,297
819,83	24,905
820,00	31,493
820,17	20,080
820,34	24,178
820,52	34,056
820,69	29,493
820,86	24,292
821,03	21,857
821,20	25,384
821,37	32,157
821,55	19,922
821,72	22,535
821,89	27,589
822,06	29,082
822,23	20,292
822,40	22,902
822,57	26,342
822,75	33,528
822,92	22,496
823,09	24,102
823,26	27,435
823,43	33,666
823,60	22,137
823,77	30,798
823,94	30,144
824,12	35,022
824,29	28,390
824,46	26,352
824,63	33,534
824,80	31,907
824,97	26,784
825,14	23,402
825,31	29,474
825,49	28,121
825,66	29,637
825,83	21,976
826,00	28,543
826,17	41,688
826,34	25,611
826,51	17,209
826,68	29,789
826,85	25,499
827,02	19,714
827,20	20,363
827,37	27,063
827,54	28,119
827,71	22,910
827,88	25,042
828,05	25,431
828,22	27,943
828,39	28,437
828,56	30,590
828,73	31,181
828,90	26,092
829,07	21,953
829,25	29,429
829,42	29,149
829,59	25,259
829,76	22,734
829,93	18,173
830,10	26,754
830,27	20,568
830,44	29,780
830,61	26,079
830,78	39,460
830,95	29,645
831,12	25,750
831,29	21,504
831,46	21,014
831,63	24,569
831,80	25,200
831,97	22,858
832,14	30,183
832,31	39,339
832,48	24,261
832,65	32,458
832,83	29,535
833,00	25,732
833,17	20,947
833,34	29,244
833,51	31,886
833,68	33,040
833,85	32,382
834,02	18,897
834,19	32,168
834,36	35,679
834,53	20,330
834,70	29,599
834,87	40,949
835,04	29,252
835,21	26,146
835,38	24,043
835,55	23,447
835,72	42,946
835,89	28,685
836,06	25,730
836,23	44,144
836,40	17,380
836,57	17,242
836,74	31,366
836,91	36,074
837,08	36,612
837,25	26,280
837,42	18,973
837,59	23,578
837,76	32,879
837,93	19,694
838,09	24,461
838,26	32,548
838,43	38,729
838,60	28,129
838,77	28,392
838,94	37,082
839,11	23,018
839,28	18,081
839,45	21,780
839,62	31,149
839,79	32,694
839,96	25,025
840,13	29,792
840,30	27,583
840,47	25,056
840,64	27,024
840,81	37,145
840,98	26,255
841,15	44,237
841,32	21,638
841,48	36,140
841,65	36,386
841,82	28,191
841,99	28,343
842,16	17,402
842,33	35,426
842,50	31,367
842,67	25,412
842,84	26,590
843,01	36,886
843,18	27,157
843,35	21,468
843,52	28,034
843,68	34,740
843,85	39,261
844,02	24,575
844,19	22,775
844,36	44,121
844,53	37,355
844,70	28,713
844,87	36,765
845,04	36,237
845,21	22,210
845,37	29,832
845,54	26,988
845,71	21,829
845,88	40,822
846,05	22,046
846,22	17,315
846,39	37,900
846,56	33,930
846,72	17,214
846,89	28,929
847,06	43,989
847,23	47,651
847,40	19,915
847,57	24,054
847,74	28,597
847,90	50,074
848,07	28,144
848,24	34,238
848,41	35,269
848,58	43,892
848,75	21,395
848,92	17,022
849,08	33,047
849,25	33,686
849,42	16,710
849,59	35,010
849,76	19,237
849,93	35,147
850,09	28,359
850,26	15,166
850,43	50,223
850,60	25,858
850,77	32,847
850,94	28,756
851,10	36,745
851,27	22,122
851,44	22,911
851,61	25,009
851,78	49,340
851,95	38,498
852,11	17,447
852,28	34,516
852,45	45,007
852,62	38,303
852,79	33,186
852,95	31,646
853,12	39,821
853,29	31,202
853,46	29,429
853,63	43,313
853,79	29,396
853,96	38,271
854,13	37,977
854,30	30,382
854,46	50,334
854,63	37,313
854,80	30,517
854,97	27,965
855,14	43,701
855,30	56,785
855,47	21,781
855,64	35,892
855,81	28,385
855,97	47,290
856,14	33,471
856,31	12,586
856,48	60,281
856,65	54,205
856,81	33,947
856,98	25,762
857,15	30,661
857,32	40,517
857,48	30,790
857,65	47,989
857,82	31,730
857,99	43,293
858,15	28,376
858,32	28,642
858,49	39,602
858,65	57,686
858,82	34,742
858,99	34,049
859,16	54,128
859,32	48,057
859,49	25,798
859,66	31,561
859,83	44,175
859,99	35,331
860,16	44,295
860,33	21,989
860,49	39,176
860,66	57,533
860,83	37,129
861,00	28,103
861,16	52,180
861,33	48,062
861,50	18,617
861,66	32,530
861,83	63,591
862,00	39,952
862,16	25,657
862,33	15,347
862,50	82,158
862,67	42,558
862,83	25,586
863,00	42,085
863,17	69,930
863,33	44,205
863,50	-1,055
863,67	29,710
863,83	51,598
864,00	59,130
864,17	15,738
864,33	38,012
864,50	41,125
864,67	38,000
864,83	23,353
865,00	32,483
865,17	32,800
865,33	62,365
865,50	22,446
865,67	14,580
865,83	44,404
866,00	80,750
866,17	38,533
866,33	37,618
866,50	75,558
866,66	53,147
866,83	42,859
867,00	61,776
867,16	77,529
867,33	81,331
867,50	18,456
867,66	37,365
867,83	80,360
868,00	51,942
868,16	38,000
868,33	31,966
868,49	49,412
868,66	70,534
868,83	23,252
868,99	30,574
869,16	71,602
869,32	69,207
869,49	55,377
869,66	10,382
869,82	89,910
869,99	89,984
870,15	11,738
870,32	48,095
870,49	83,754
870,65	100,931
870,82	53,701
870,98	55,212
871,15	121,581
871,32	53,220
871,48	16,862
871,65	31,481
871,81	61,048
871,98	30,386
872,15	28,176
872,31	38,361
872,48	118,333
872,64	65,325
872,81	23,973
872,97	35,302
873,14	74,157
873,31	55,905
873,47	35,553
873,64	33,719
873,80	99,978
873,97	63,250
874,13	38,522
874,30	64,380
874,46	76,398
874,63	47,002
874,80	23,437
874,96	19,202
875,13	93,764
875,29	39,140
875,46	85,158
875,62	2,288
875,79	76,917
875,95	39,264
876,12	12,816
876,28	5,851
876,45	122,010
876,61	73,985
876,78	25,174
876,94	27,878
877,11	93,651
877,27	105,864
877,44	33,249
877,60	52,416
877,77	83,300
877,94	141,315
878,10	14,879
878,27	72,975
878,43	132,473
878,60	48,904
878,76	59,594
878,93	48,890
879,09	126,782
879,26	112,571
879,42	47,964
879,58	67,801
879,75	108,341
879,91	118,127
880,08	-26,852
880,24	55,353
880,41	64,917
880,57	80,042
880,74	40,023
880,90	40,406
881,07	77,873
881,23	64,224
881,40	57,150
881,56	34,746
881,73	127,679
881,89	87,820
882,06	-6,007
882,22	163,086
882,38	147,288
882,55	185,926
882,71	26,692
882,88	62,388
883,04	70,601
883,21	149,263
883,37	23,324
883,54	37,609
883,70	225,359
883,86	90,522
884,03	45,547
884,19	16,010
884,36	153,228
884,52	147,351
884,69	84,607
884,85	24,940
885,01	309,850
885,18	95,656
885,34	47,120
885,51	-6,193
885,67	60,103
>>>>> Data<<<<< Espectral Procesado Extremo
