Fichero De Datos De SpectraSuite
++++++++++++++++++++++++++++++++++++
Fecha: Wed Apr 22 13:16:47 CEST 2009
Usuario: evoflor
Presente Oscuro Del Espectro: Sí
La Referencia de Presente Del Espectro De: Sí
Muestreados de los componentes de Número de espectros: 1
Espectrómetros: USB4F02353
Tiempo de integración (usec): 500000 (USB4F02353)
Promedio de Espectros Hechos un: 5 (USB4F02353)
El Alisar Del Furgón: 0 (USB4F02353)
Párrafo de de Corregir del la del del de Eléctrica del obscuridad: Sí (USB4F02353)
Estrobo/Lámpara Permitido: No (USB4F02353)
Correct for Detector Non-linearity: No (USB4F02353)
Párrafo de de Corregir del la del del de Externa del luz: No (USB4F02353)
Procesado del espectro de Número de pixeles en: 3648
>>>>> Comienza Data<<<<< Espectral Procesado Del EL
177,79	345,176
178,00	345,176
178,22	345,176
178,44	2180,055
178,66	-268,395
178,88	262,166
179,09	-312,404
179,31	202,809
179,53	653,607
179,75	405,467
179,96	764,784
180,18	-464,046
180,40	597,818
180,62	209,058
180,83	-1,591
181,05	-2025,793
181,27	-104915,000
181,49	-75,467
181,70	247,750
181,92	1012,259
182,14	475,949
182,36	47,199
182,58	804,850
182,79	1127,299
183,01	-77,121
183,23	140,972
183,45	-37,585
183,66	-221,305
183,88	664,794
184,10	-2300,273
184,32	388,899
184,53	273,866
184,75	-419,526
184,97	-4,454
185,18	-224,276
185,40	-673,149
185,62	192,464
185,84	24,705
186,05	90,962
186,27	-185,962
186,49	3931,346
186,71	-7,766
186,92	215,012
187,14	-279,561
187,36	153,764
187,58	97,770
187,79	-115,676
188,01	256,747
188,23	-147,202
188,45	19,429
188,66	468,371
188,88	-3298,455
189,10	-2453,150
189,31	-23,916
189,53	-13,841
189,75	483,898
189,97	514,288
190,18	-225,687
190,40	918,912
190,62	-332,280
190,83	-272,403
191,05	141,041
191,27	178,900
191,49	302,017
191,70	-521,707
191,92	-454,364
192,14	-119,552
192,35	669,801
192,57	4540,429
192,79	8,812
193,01	256,508
193,22	122,751
193,44	-129,889
193,66	117,568
193,87	301,745
194,09	10,212
194,31	294,574
194,53	179,825
194,74	85,024
194,96	93,881
195,18	124,487
195,39	-279,195
195,61	-187,078
195,83	-169,380
196,04	148,346
196,26	200,930
196,48	-16,353
196,70	400,030
196,91	12,858
197,13	8,139
197,35	91,931
197,56	918,313
197,78	2005,336
198,00	305,699
198,21	107,354
198,43	-1447,180
198,65	180,672
198,86	286,745
199,08	-98,639
199,30	186,872
199,51	-529,365
199,73	294,743
199,95	444,592
200,16	732,365
200,38	291,752
200,60	267,782
200,81	236,221
201,03	424,497
201,25	-1598,150
201,46	187,527
201,68	117,545
201,90	2159,432
202,11	-685,553
202,33	298,232
202,55	1401,437
202,76	-197,271
202,98	321,655
203,20	79,736
203,41	-732,184
203,63	163,839
203,85	-104915,000
204,06	201,659
204,28	-57,627
204,50	165,576
204,71	481,122
204,93	18,520
205,15	256,370
205,36	-162,744
205,58	216,919
205,80	-171,583
206,01	118,094
206,23	118,163
206,45	248,145
206,66	207,261
206,88	-97,672
207,10	299,807
207,31	476,311
207,53	119,757
207,75	125,496
207,96	890,410
208,18	-240,469
208,39	115,155
208,61	3229,000
208,83	-517,643
209,04	288,255
209,26	-412,972
209,48	145,954
209,69	250,508
209,91	770,997
210,13	69,766
210,34	79,697
210,56	208,311
210,77	-1513,504
210,99	193,560
211,21	5112,647
211,42	-297,686
211,64	-30,677
211,86	156,980
212,07	171,120
212,29	221,337
212,50	127,149
212,72	507,365
212,94	201,414
213,15	202,945
213,37	145,026
213,58	-57,018
213,80	-821,964
214,02	15700,882
214,23	477,217
214,45	456,115
214,67	-1301,402
214,88	-267,500
215,10	-351,083
215,31	-6,736
215,53	-7,011
215,75	238,809
215,96	1903,820
216,18	1566,408
216,39	267,337
216,61	596,539
216,83	460,335
217,04	1370,955
217,26	60,347
217,47	181,132
217,69	344,956
217,91	58,982
218,12	-45515,000
218,34	225,591
218,55	528,952
218,77	102,510
218,99	100,616
219,20	-158,309
219,42	454,901
219,63	-192,996
219,85	-66,872
220,06	12,365
220,28	151,475
220,50	194,077
220,71	105,303
220,93	2743,679
221,14	-1814,150
221,36	31,711
221,58	-179,300
221,79	201,731
222,01	1463,060
222,22	382,336
222,44	-631,292
222,65	153,148
222,87	242,762
223,09	196,765
223,30	73,949
223,52	131,332
223,73	158,229
223,95	3,261
224,16	184,773
224,38	325,391
224,60	162,764
224,81	42,958
225,03	112,572
225,24	233,990
225,46	132,417
225,67	43,791
225,89	101,983
226,10	652,154
226,32	990,520
226,54	-51,092
226,75	43,939
226,97	147,603
227,18	193,005
227,40	28,002
227,61	81,029
227,83	6,693
228,04	143,830
228,26	51,852
228,47	65,591
228,69	261,808
228,91	173,004
229,12	85,592
229,34	28,538
229,55	65,754
229,77	34,202
229,98	-11,379
230,20	96,942
230,41	59,308
230,63	119,318
230,84	18,615
231,06	31,167
231,27	36,990
231,49	72,593
231,71	53,204
231,92	49,775
232,14	46,175
232,35	89,139
232,57	40,698
232,78	10,025
233,00	80,383
233,21	39,047
233,43	26,438
233,64	34,067
233,86	58,852
234,07	48,408
234,29	20,526
234,50	1,536
234,72	59,349
234,93	33,390
235,15	12,244
235,36	36,525
235,58	37,694
235,79	52,146
236,01	17,297
236,22	12,394
236,44	37,731
236,65	26,820
236,87	30,298
237,08	11,655
237,30	5,943
237,51	27,918
237,73	-2,928
237,94	14,231
238,16	23,429
238,37	12,348
238,59	13,117
238,80	13,595
239,02	7,944
239,23	14,913
239,45	9,473
239,66	28,531
239,88	45,194
240,09	24,419
240,31	12,229
240,52	5,707
240,74	16,929
240,95	10,417
241,17	10,762
241,38	18,283
241,60	19,791
241,81	26,147
242,03	11,176
242,24	17,439
242,46	26,364
242,67	5,304
242,89	8,391
243,10	17,024
243,32	18,216
243,53	20,505
243,75	4,157
243,96	11,336
244,18	7,393
244,39	13,836
244,60	10,685
244,82	6,187
245,03	26,416
245,25	10,496
245,46	32,964
245,68	3,450
245,89	26,648
246,11	23,680
246,32	9,581
246,54	5,511
246,75	10,934
246,97	15,415
247,18	25,445
247,39	7,175
247,61	11,569
247,82	18,482
248,04	10,191
248,25	8,206
248,47	11,209
248,68	13,362
248,90	6,392
249,11	7,950
249,33	20,909
249,54	7,566
249,75	8,488
249,97	8,156
250,18	16,768
250,40	17,533
250,61	-8,363
250,83	2,854
251,04	6,950
251,25	14,863
251,47	0,180
251,68	14,166
251,90	8,955
252,11	14,300
252,33	4,267
252,54	6,812
252,76	10,027
252,97	6,218
253,18	4,693
253,40	7,687
253,61	1,737
253,83	12,603
254,04	8,427
254,25	5,499
254,47	5,083
254,68	11,853
254,90	2,156
255,11	10,538
255,33	9,250
255,54	4,673
255,75	5,619
255,97	6,979
256,18	8,480
256,40	8,264
256,61	8,308
256,82	1,951
257,04	10,902
257,25	1,107
257,47	6,402
257,68	4,524
257,89	9,578
258,11	12,336
258,32	4,999
258,54	8,906
258,75	10,260
258,96	14,839
259,18	3,835
259,39	4,320
259,61	13,594
259,82	5,404
260,03	7,197
260,25	7,834
260,46	5,455
260,68	5,112
260,89	5,303
261,10	7,149
261,32	9,620
261,53	4,550
261,75	7,494
261,96	1,271
262,17	9,498
262,39	10,568
262,60	2,261
262,81	-1,056
263,03	10,776
263,24	8,745
263,46	6,912
263,67	4,154
263,88	5,868
264,10	6,203
264,31	3,093
264,52	6,154
264,74	7,468
264,95	6,016
265,17	7,648
265,38	3,760
265,59	8,113
265,81	7,413
266,02	1,815
266,23	1,365
266,45	12,971
266,66	11,664
266,87	9,371
267,09	4,319
267,30	10,611
267,52	7,633
267,73	6,941
267,94	3,813
268,16	11,738
268,37	5,992
268,58	3,435
268,80	3,913
269,01	8,630
269,22	9,202
269,44	8,094
269,65	5,195
269,86	-2,450
270,08	9,766
270,29	1,498
270,50	5,752
270,72	11,493
270,93	6,411
271,14	-0,929
271,36	5,010
271,57	9,713
271,78	6,661
272,00	7,077
272,21	6,092
272,42	9,026
272,64	5,120
272,85	2,220
273,06	3,613
273,28	11,952
273,49	7,018
273,70	9,008
273,92	7,472
274,13	10,640
274,34	5,030
274,56	8,578
274,77	2,334
274,98	7,871
275,20	7,008
275,41	6,829
275,62	7,041
275,84	7,319
276,05	13,097
276,26	3,335
276,47	2,602
276,69	12,337
276,90	8,360
277,11	3,394
277,33	3,627
277,54	7,643
277,75	11,494
277,97	5,234
278,18	2,428
278,39	8,559
278,61	6,969
278,82	9,805
279,03	7,459
279,24	5,397
279,46	5,338
279,67	7,073
279,88	4,326
280,10	11,219
280,31	2,706
280,52	4,854
280,73	1,238
280,95	7,426
281,16	8,818
281,37	3,467
281,59	7,614
281,80	15,559
282,01	5,076
282,22	5,688
282,44	3,278
282,65	15,340
282,86	6,952
283,08	5,311
283,29	6,747
283,50	5,750
283,71	8,117
283,93	6,516
284,14	10,052
284,35	7,929
284,56	6,892
284,78	4,452
284,99	7,109
285,20	10,893
285,42	6,490
285,63	5,468
285,84	3,772
286,05	6,041
286,27	4,995
286,48	2,843
286,69	2,852
286,90	3,503
287,12	2,138
287,33	4,431
287,54	0,711
287,75	8,193
287,97	7,847
288,18	4,804
288,39	3,577
288,60	8,319
288,82	7,065
289,03	3,791
289,24	4,910
289,45	7,539
289,67	5,661
289,88	0,897
290,09	4,268
290,30	5,162
290,52	4,512
290,73	6,799
290,94	1,637
291,15	6,318
291,37	8,331
291,58	6,430
291,79	3,592
292,00	4,012
292,21	6,275
292,43	2,961
292,64	4,276
292,85	5,104
293,06	8,637
293,28	0,830
293,49	1,335
293,70	7,463
293,91	11,517
294,12	6,859
294,34	4,952
294,55	7,048
294,76	7,780
294,97	4,978
295,19	0,552
295,40	6,254
295,61	5,560
295,82	1,742
296,03	5,499
296,25	3,384
296,46	3,133
296,67	0,745
296,88	0,470
297,09	6,230
297,31	6,365
297,52	5,493
297,73	2,591
297,94	9,190
298,15	7,022
298,37	4,337
298,58	6,424
298,79	9,240
299,00	2,510
299,21	3,142
299,43	3,515
299,64	6,891
299,85	5,868
300,06	4,141
300,27	2,900
300,49	9,578
300,70	5,477
300,91	4,573
301,12	4,812
301,33	8,928
301,54	5,003
301,76	5,823
301,97	4,218
302,18	4,641
302,39	7,690
302,60	13,968
302,82	4,459
303,03	10,686
303,24	4,945
303,45	6,769
303,66	3,581
303,87	3,003
304,09	8,648
304,30	4,194
304,51	3,327
304,72	6,666
304,93	7,916
305,14	4,065
305,36	3,210
305,57	1,543
305,78	6,144
305,99	2,787
306,20	5,209
306,41	4,871
306,62	2,975
306,84	3,316
307,05	3,024
307,26	5,838
307,47	7,306
307,68	4,193
307,89	3,067
308,11	8,569
308,32	4,352
308,53	3,343
308,74	4,052
308,95	4,935
309,16	8,507
309,37	6,546
309,59	3,983
309,80	7,041
310,01	5,923
310,22	5,693
310,43	4,184
310,64	6,531
310,85	8,749
311,06	3,921
311,28	4,470
311,49	5,291
311,70	7,896
311,91	1,673
312,12	3,022
312,33	2,499
312,54	6,289
312,75	4,021
312,97	3,601
313,18	6,284
313,39	4,006
313,60	3,132
313,81	5,419
314,02	6,083
314,23	7,598
314,44	1,821
314,65	4,607
314,87	3,876
315,08	3,235
315,29	6,552
315,50	7,233
315,71	8,913
315,92	10,722
316,13	6,285
316,34	5,325
316,55	5,219
316,77	0,569
316,98	4,338
317,19	4,364
317,40	9,094
317,61	9,423
317,82	2,770
318,03	3,230
318,24	3,797
318,45	8,390
318,66	3,732
318,87	0,380
319,09	5,520
319,30	7,581
319,51	6,846
319,72	5,586
319,93	6,573
320,14	8,651
320,35	8,167
320,56	3,639
320,77	4,287
320,98	8,817
321,19	4,518
321,40	4,517
321,62	10,642
321,83	2,343
322,04	5,949
322,25	3,371
322,46	9,528
322,67	7,468
322,88	7,048
323,09	2,024
323,30	9,881
323,51	9,736
323,72	7,653
323,93	2,387
324,14	5,549
324,35	2,978
324,56	1,784
324,77	4,467
324,99	6,529
325,20	1,786
325,41	6,492
325,62	6,232
325,83	4,318
326,04	4,175
326,25	6,666
326,46	1,658
326,67	5,757
326,88	4,202
327,09	2,241
327,30	2,263
327,51	5,457
327,72	6,003
327,93	6,270
328,14	1,816
328,35	5,356
328,56	6,093
328,77	7,281
328,98	7,744
329,19	7,000
329,40	4,195
329,61	1,729
329,82	1,899
330,04	5,155
330,25	5,009
330,46	3,576
330,67	2,473
330,88	4,711
331,09	3,960
331,30	5,108
331,51	4,647
331,72	7,620
331,93	7,905
332,14	2,509
332,35	5,203
332,56	4,008
332,77	7,115
332,98	2,721
333,19	5,245
333,40	6,599
333,61	2,278
333,82	7,178
334,03	7,328
334,24	8,759
334,45	6,986
334,66	4,725
334,87	5,265
335,08	2,506
335,29	2,904
335,50	3,014
335,71	3,397
335,92	6,814
336,13	8,447
336,34	4,740
336,55	4,973
336,76	9,196
336,97	6,942
337,18	3,100
337,39	2,915
337,60	5,534
337,81	4,123
338,02	6,204
338,23	4,239
338,44	6,475
338,65	6,152
338,86	7,306
339,07	3,529
339,28	6,013
339,49	6,278
339,70	1,163
339,91	4,790
340,11	8,987
340,32	3,489
340,53	2,641
340,74	3,598
340,95	2,912
341,16	7,024
341,37	3,085
341,58	4,943
341,79	4,712
342,00	6,177
342,21	5,575
342,42	4,070
342,63	7,918
342,84	4,149
343,05	2,592
343,26	8,127
343,47	7,583
343,68	4,754
343,89	2,017
344,10	4,494
344,31	7,759
344,52	4,751
344,73	3,869
344,94	5,231
345,14	6,688
345,35	4,485
345,56	5,458
345,77	3,439
345,98	6,298
346,19	5,371
346,40	4,972
346,61	5,644
346,82	6,859
347,03	6,323
347,24	6,746
347,45	3,377
347,66	9,664
347,87	4,200
348,08	6,583
348,28	-0,725
348,49	5,897
348,70	7,451
348,91	5,052
349,12	1,157
349,33	17,305
349,54	6,321
349,75	6,916
349,96	4,166
350,17	4,362
350,38	3,232
350,59	5,955
350,80	3,201
351,00	6,324
351,21	9,811
351,42	8,227
351,63	3,030
351,84	8,979
352,05	9,957
352,26	4,723
352,47	4,280
352,68	7,023
352,89	9,327
353,09	6,218
353,30	3,147
353,51	5,380
353,72	11,255
353,93	10,157
354,14	3,747
354,35	5,937
354,56	8,158
354,77	4,539
354,98	1,034
355,18	5,453
355,39	11,720
355,60	3,423
355,81	5,502
356,02	6,997
356,23	5,868
356,44	3,975
356,65	5,340
356,85	11,274
357,06	7,700
357,27	5,410
357,48	3,705
357,69	7,886
357,90	9,878
358,11	4,137
358,32	3,448
358,52	7,913
358,73	6,369
358,94	4,027
359,15	8,682
359,36	6,177
359,57	6,116
359,78	4,004
359,98	4,460
360,19	3,511
360,40	5,569
360,61	8,784
360,82	5,403
361,03	8,205
361,24	7,885
361,44	3,556
361,65	6,042
361,86	1,031
362,07	6,719
362,28	4,572
362,49	0,474
362,70	3,009
362,90	6,091
363,11	3,814
363,32	1,928
363,53	8,551
363,74	5,251
363,95	9,907
364,15	7,530
364,36	10,508
364,57	5,265
364,78	3,613
364,99	7,225
365,20	6,506
365,40	10,512
365,61	4,788
365,82	8,445
366,03	8,103
366,24	5,598
366,45	4,078
366,65	3,811
366,86	5,287
367,07	10,282
367,28	4,710
367,49	3,877
367,69	8,198
367,90	6,312
368,11	5,459
368,32	2,410
368,53	9,426
368,73	8,284
368,94	5,238
369,15	3,615
369,36	7,502
369,57	5,906
369,78	3,796
369,98	8,276
370,19	10,126
370,40	6,515
370,61	5,176
370,82	5,823
371,02	9,372
371,23	9,545
371,44	4,785
371,65	5,513
371,85	11,255
372,06	7,924
372,27	2,819
372,48	4,797
372,69	6,305
372,89	1,485
373,10	6,855
373,31	4,291
373,52	4,637
373,73	11,043
373,93	10,922
374,14	4,998
374,35	8,778
374,56	8,962
374,76	3,770
374,97	6,560
375,18	9,101
375,39	5,340
375,60	6,996
375,80	6,859
376,01	6,364
376,22	7,477
376,43	8,716
376,63	4,245
376,84	6,176
377,05	8,631
377,26	5,423
377,46	5,310
377,67	3,065
377,88	7,481
378,09	6,950
378,29	1,710
378,50	6,749
378,71	9,511
378,92	4,876
379,12	6,353
379,33	6,055
379,54	4,345
379,75	8,833
379,95	3,994
380,16	6,111
380,37	8,231
380,58	6,793
380,78	8,894
380,99	6,143
381,20	6,398
381,41	5,646
381,61	6,720
381,82	5,153
382,03	4,432
382,24	10,272
382,44	5,625
382,65	5,531
382,86	6,516
383,06	9,565
383,27	3,990
383,48	7,823
383,69	7,704
383,89	5,704
384,10	6,541
384,31	6,960
384,51	12,338
384,72	9,486
384,93	2,255
385,14	4,696
385,34	7,301
385,55	5,420
385,76	5,328
385,96	6,377
386,17	8,402
386,38	10,041
386,59	9,495
386,79	9,235
387,00	10,760
387,21	10,901
387,41	6,461
387,62	4,052
387,83	12,100
388,03	8,156
388,24	0,552
388,45	8,834
388,66	10,073
388,86	8,375
389,07	4,554
389,28	11,358
389,48	8,260
389,69	7,699
389,90	5,853
390,10	10,171
390,31	12,534
390,52	3,338
390,72	6,120
390,93	8,637
391,14	6,378
391,34	6,905
391,55	12,940
391,76	11,601
391,96	10,444
392,17	5,006
392,38	11,608
392,58	11,005
392,79	9,517
393,00	4,125
393,20	6,352
393,41	7,552
393,62	10,337
393,82	10,341
394,03	8,431
394,24	9,270
394,44	15,817
394,65	8,961
394,86	6,625
395,06	10,110
395,27	6,383
395,48	5,584
395,68	11,298
395,89	10,542
396,10	10,906
396,30	4,198
396,51	7,215
396,72	12,161
396,92	5,181
397,13	9,370
397,34	7,181
397,54	13,104
397,75	11,799
397,95	7,516
398,16	7,838
398,37	7,351
398,57	9,122
398,78	10,844
398,99	12,495
399,19	11,982
399,40	16,748
399,60	9,156
399,81	10,963
400,02	15,013
400,22	11,252
400,43	9,249
400,64	11,138
400,84	6,218
401,05	12,917
401,25	13,499
401,46	9,616
401,67	15,036
401,87	11,038
402,08	7,571
402,29	8,296
402,49	15,314
402,70	16,703
402,90	8,296
403,11	11,899
403,32	11,309
403,52	14,996
403,73	13,994
403,93	15,423
404,14	20,175
404,35	15,140
404,55	10,058
404,76	11,877
404,96	14,990
405,17	16,500
405,38	15,646
405,58	11,752
405,79	17,163
405,99	17,178
406,20	13,910
406,40	8,471
406,61	18,312
406,82	14,582
407,02	15,480
407,23	16,091
407,43	13,342
407,64	16,230
407,85	14,237
408,05	11,296
408,26	23,538
408,46	21,983
408,67	14,522
408,87	16,022
409,08	16,118
409,29	25,059
409,49	19,538
409,70	17,347
409,90	19,805
410,11	17,120
410,31	21,248
410,52	16,937
410,72	18,781
410,93	19,641
411,14	19,592
411,34	14,148
411,55	20,708
411,75	21,839
411,96	18,972
412,16	20,648
412,37	18,955
412,57	18,643
412,78	23,252
412,99	19,380
413,19	23,490
413,40	18,870
413,60	17,558
413,81	17,815
414,01	22,803
414,22	21,620
414,42	18,709
414,63	17,085
414,83	22,388
415,04	22,519
415,24	17,582
415,45	17,941
415,65	21,115
415,86	22,770
416,07	21,051
416,27	23,263
416,48	26,373
416,68	28,368
416,89	15,857
417,09	20,489
417,30	26,975
417,50	22,574
417,71	22,358
417,91	22,989
418,12	20,022
418,32	23,528
418,53	18,857
418,73	18,605
418,94	22,321
419,14	24,869
419,35	21,922
419,55	24,360
419,76	23,027
419,96	23,859
420,17	22,036
420,37	23,382
420,58	29,973
420,78	23,121
420,99	23,012
421,19	27,886
421,40	25,377
421,60	27,899
421,81	19,859
422,01	25,031
422,22	23,211
422,42	28,516
422,63	24,512
422,83	24,114
423,04	31,021
423,24	33,294
423,45	20,927
423,65	28,582
423,86	30,576
424,06	26,366
424,27	22,692
424,47	20,977
424,67	21,642
424,88	27,278
425,08	23,106
425,29	33,711
425,49	23,240
425,70	19,320
425,90	24,413
426,11	23,306
426,31	28,887
426,52	25,996
426,72	23,267
426,93	21,149
427,13	32,051
427,33	24,602
427,54	28,842
427,74	31,032
427,95	33,562
428,15	24,143
428,36	24,961
428,56	24,642
428,77	30,007
428,97	26,279
429,18	27,554
429,38	25,596
429,58	32,006
429,79	28,441
429,99	24,666
430,20	19,910
430,40	32,931
430,61	24,549
430,81	22,050
431,01	30,375
431,22	29,378
431,42	30,639
431,63	25,634
431,83	25,525
432,04	24,933
432,24	27,619
432,44	26,250
432,65	22,705
432,85	25,020
433,06	27,781
433,26	23,606
433,47	23,518
433,67	27,032
433,87	26,146
434,08	21,951
434,28	24,571
434,49	23,390
434,69	32,518
434,89	21,179
435,10	23,076
435,30	29,449
435,51	21,670
435,71	23,049
435,91	22,663
436,12	24,658
436,32	27,097
436,53	26,658
436,73	24,116
436,93	29,303
437,14	30,314
437,34	25,264
437,55	25,294
437,75	26,334
437,95	28,194
438,16	26,232
438,36	25,917
438,57	23,090
438,77	27,710
438,97	27,291
439,18	31,107
439,38	27,368
439,58	23,473
439,79	26,657
439,99	22,484
440,20	33,160
440,40	28,214
440,60	26,158
440,81	28,725
441,01	30,358
441,21	29,276
441,42	29,274
441,62	30,037
441,83	29,427
442,03	29,322
442,23	27,888
442,44	24,178
442,64	28,473
442,84	23,261
443,05	23,640
443,25	23,366
443,45	23,397
443,66	26,916
443,86	21,862
444,06	26,201
444,27	24,844
444,47	24,720
444,67	28,227
444,88	29,729
445,08	25,853
445,28	28,282
445,49	25,331
445,69	24,593
445,90	29,725
446,10	31,329
446,30	23,702
446,51	26,916
446,71	31,953
446,91	33,368
447,12	35,395
447,32	24,066
447,52	30,741
447,72	28,710
447,93	24,384
448,13	19,034
448,33	30,706
448,54	30,132
448,74	20,609
448,94	26,266
449,15	36,488
449,35	32,973
449,55	28,999
449,76	34,257
449,96	28,651
450,16	29,599
450,37	25,014
450,57	29,023
450,77	22,392
450,98	30,423
451,18	28,256
451,38	28,480
451,58	31,160
451,79	27,405
451,99	30,920
452,19	27,369
452,40	30,494
452,60	23,446
452,80	28,208
453,00	31,950
453,21	30,336
453,41	33,467
453,61	27,855
453,82	33,987
454,02	22,570
454,22	33,790
454,42	25,666
454,63	25,033
454,83	26,800
455,03	30,502
455,24	25,473
455,44	24,428
455,64	24,283
455,84	23,043
456,05	25,849
456,25	23,616
456,45	26,383
456,65	24,994
456,86	25,521
457,06	26,551
457,26	31,010
457,47	36,836
457,67	30,246
457,87	26,544
458,07	27,724
458,28	31,692
458,48	30,161
458,68	26,436
458,88	34,240
459,09	24,607
459,29	38,716
459,49	28,038
459,69	28,011
459,90	32,342
460,10	24,494
460,30	25,979
460,50	25,522
460,71	28,468
460,91	21,676
461,11	27,578
461,31	26,366
461,52	30,733
461,72	31,232
461,92	29,847
462,12	34,844
462,32	26,535
462,53	26,543
462,73	29,157
462,93	30,127
463,13	32,369
463,34	22,908
463,54	28,851
463,74	34,349
463,94	25,444
464,14	29,404
464,35	23,545
464,55	31,487
464,75	32,926
464,95	28,123
465,16	24,151
465,36	30,407
465,56	25,193
465,76	26,360
465,96	26,440
466,17	28,394
466,37	27,726
466,57	30,284
466,77	26,114
466,97	28,211
467,18	31,070
467,38	28,850
467,58	27,187
467,78	31,700
467,98	28,797
468,19	32,899
468,39	28,194
468,59	32,207
468,79	26,222
468,99	27,103
469,19	25,446
469,40	29,421
469,60	29,286
469,80	22,451
470,00	28,081
470,20	30,597
470,41	27,391
470,61	24,863
470,81	26,367
471,01	23,886
471,21	28,144
471,41	24,082
471,62	26,662
471,82	26,647
472,02	25,096
472,22	26,274
472,42	22,106
472,62	30,996
472,83	24,098
473,03	29,312
473,23	25,269
473,43	33,433
473,63	30,447
473,83	29,730
474,03	27,983
474,24	32,984
474,44	27,269
474,64	24,586
474,84	24,570
475,04	28,368
475,24	29,991
475,45	25,535
475,65	26,604
475,85	30,799
476,05	22,566
476,25	26,157
476,45	24,758
476,65	35,265
476,85	22,340
477,06	24,554
477,26	22,288
477,46	28,616
477,66	27,783
477,86	27,180
478,06	24,351
478,26	32,985
478,46	25,553
478,67	30,361
478,87	24,549
479,07	27,027
479,27	28,862
479,47	22,214
479,67	20,029
479,87	22,986
480,07	29,910
480,28	22,604
480,48	23,192
480,68	29,709
480,88	34,345
481,08	25,805
481,28	26,049
481,48	26,098
481,68	26,738
481,88	25,400
482,08	23,787
482,29	28,149
482,49	21,714
482,69	26,502
482,89	26,526
483,09	28,344
483,29	24,463
483,49	21,292
483,69	26,297
483,89	26,223
484,09	22,780
484,29	20,571
484,50	24,787
484,70	27,545
484,90	25,226
485,10	22,062
485,30	26,564
485,50	26,223
485,70	26,245
485,90	24,539
486,10	20,377
486,30	24,997
486,50	23,915
486,70	24,050
486,90	21,972
487,10	27,528
487,30	27,095
487,51	25,768
487,71	21,039
487,91	21,317
488,11	25,957
488,31	21,596
488,51	25,063
488,71	22,727
488,91	25,576
489,11	20,387
489,31	22,928
489,51	23,861
489,71	25,324
489,91	24,260
490,11	21,599
490,31	24,375
490,51	25,548
490,71	23,446
490,91	21,377
491,11	23,165
491,31	20,245
491,51	20,304
491,72	24,177
491,92	26,480
492,12	28,298
492,32	25,722
492,52	26,086
492,72	23,138
492,92	25,192
493,12	26,201
493,32	21,112
493,52	19,186
493,72	22,103
493,92	25,657
494,12	23,763
494,32	26,012
494,52	22,948
494,72	21,635
494,92	21,413
495,12	24,640
495,32	26,207
495,52	22,256
495,72	25,862
495,92	28,322
496,12	28,232
496,32	21,278
496,52	23,773
496,72	21,779
496,92	26,024
497,12	23,404
497,32	24,512
497,52	26,150
497,72	28,559
497,92	24,991
498,12	20,728
498,32	23,539
498,52	25,628
498,72	21,236
498,92	22,123
499,12	24,866
499,32	22,296
499,52	25,824
499,72	23,671
499,92	23,728
500,12	25,159
500,32	24,672
500,52	25,948
500,72	29,620
500,91	27,557
501,11	23,452
501,31	21,370
501,51	28,575
501,71	28,650
501,91	25,512
502,11	22,365
502,31	23,952
502,51	25,857
502,71	25,525
502,91	23,392
503,11	24,061
503,31	24,417
503,51	20,689
503,71	21,244
503,91	27,366
504,11	24,937
504,31	23,323
504,51	24,465
504,71	28,284
504,91	21,970
505,10	24,463
505,30	25,438
505,50	24,991
505,70	22,727
505,90	23,524
506,10	19,529
506,30	22,694
506,50	26,936
506,70	26,548
506,90	23,311
507,10	21,342
507,30	20,950
507,50	24,847
507,70	23,069
507,89	25,135
508,09	22,829
508,29	22,046
508,49	20,382
508,69	22,983
508,89	22,022
509,09	21,237
509,29	23,501
509,49	25,365
509,69	26,172
509,89	24,856
510,09	21,866
510,28	25,217
510,48	24,943
510,68	19,669
510,88	22,556
511,08	21,269
511,28	22,756
511,48	20,816
511,68	20,983
511,88	16,640
512,07	22,127
512,27	22,573
512,47	21,464
512,67	18,863
512,87	18,028
513,07	21,831
513,27	18,722
513,47	22,378
513,67	18,248
513,86	21,877
514,06	24,608
514,26	21,160
514,46	26,309
514,66	21,645
514,86	18,765
515,06	27,820
515,26	23,862
515,45	19,692
515,65	19,176
515,85	24,264
516,05	18,911
516,25	21,622
516,45	23,733
516,65	23,307
516,84	22,849
517,04	25,417
517,24	19,762
517,44	22,452
517,64	23,962
517,84	24,385
518,04	22,082
518,23	24,350
518,43	26,947
518,63	18,248
518,83	19,287
519,03	20,753
519,23	22,507
519,42	22,122
519,62	20,755
519,82	22,123
520,02	22,683
520,22	19,722
520,42	19,160
520,61	24,218
520,81	25,225
521,01	22,538
521,21	19,320
521,41	21,602
521,61	24,221
521,80	19,472
522,00	21,028
522,20	24,883
522,40	24,088
522,60	19,521
522,79	19,711
522,99	23,518
523,19	19,003
523,39	21,071
523,59	17,925
523,78	25,854
523,98	17,449
524,18	23,638
524,38	17,895
524,58	20,606
524,77	25,143
524,97	21,959
525,17	21,143
525,37	22,121
525,57	22,045
525,76	18,381
525,96	19,771
526,16	19,779
526,36	18,829
526,56	19,878
526,75	20,855
526,95	21,550
527,15	20,460
527,35	22,824
527,55	17,949
527,74	20,413
527,94	17,159
528,14	17,439
528,34	21,037
528,53	17,547
528,73	22,893
528,93	19,723
529,13	18,005
529,32	17,556
529,52	20,005
529,72	17,396
529,92	19,170
530,12	20,340
530,31	15,904
530,51	19,593
530,71	20,307
530,91	22,710
531,10	15,326
531,30	18,367
531,50	15,815
531,70	19,798
531,89	18,398
532,09	16,845
532,29	16,915
532,49	19,104
532,68	20,987
532,88	17,250
533,08	17,056
533,28	18,465
533,47	18,060
533,67	20,653
533,87	18,127
534,06	23,270
534,26	18,793
534,46	14,909
534,66	18,157
534,85	20,691
535,05	12,944
535,25	16,854
535,45	18,105
535,64	21,132
535,84	18,578
536,04	15,239
536,23	15,804
536,43	22,747
536,63	18,558
536,83	16,770
537,02	15,881
537,22	17,770
537,42	16,302
537,61	17,687
537,81	19,529
538,01	17,581
538,20	20,030
538,40	15,217
538,60	17,838
538,80	18,370
538,99	17,994
539,19	16,122
539,39	15,760
539,58	18,927
539,78	15,258
539,98	15,796
540,17	13,199
540,37	15,300
540,57	13,052
540,76	14,673
540,96	10,529
541,16	16,325
541,36	12,966
541,55	10,599
541,75	11,252
541,95	10,711
542,14	11,607
542,34	12,189
542,54	10,460
542,73	13,394
542,93	14,510
543,13	11,197
543,32	13,053
543,52	12,583
543,72	9,448
543,91	13,124
544,11	10,212
544,31	10,781
544,50	12,789
544,70	13,024
544,89	11,838
545,09	15,401
545,29	12,404
545,48	12,766
545,68	9,755
545,88	13,240
546,07	12,076
546,27	12,778
546,47	13,189
546,66	13,931
546,86	14,136
547,06	11,880
547,25	12,226
547,45	15,866
547,64	16,174
547,84	17,463
548,04	15,653
548,23	17,934
548,43	17,836
548,63	16,161
548,82	15,124
549,02	15,000
549,21	14,166
549,41	16,224
549,61	15,997
549,80	13,506
550,00	15,983
550,20	12,289
550,39	17,217
550,59	15,606
550,78	17,212
550,98	14,113
551,18	18,220
551,37	16,209
551,57	15,969
551,76	15,212
551,96	16,122
552,16	15,292
552,35	18,682
552,55	15,199
552,74	16,303
552,94	16,319
553,14	16,397
553,33	12,932
553,53	14,841
553,72	17,085
553,92	17,861
554,12	13,367
554,31	14,634
554,51	18,997
554,70	12,703
554,90	16,648
555,09	16,676
555,29	17,307
555,49	13,938
555,68	18,646
555,88	12,803
556,07	13,808
556,27	17,359
556,46	15,415
556,66	13,276
556,86	18,222
557,05	17,148
557,25	14,736
557,44	14,416
557,64	13,927
557,83	14,626
558,03	15,639
558,22	14,549
558,42	17,931
558,62	20,598
558,81	17,201
559,01	16,780
559,20	17,849
559,40	15,139
559,59	14,034
559,79	13,828
559,98	17,215
560,18	17,686
560,37	18,052
560,57	12,869
560,76	16,418
560,96	15,832
561,16	17,580
561,35	16,225
561,55	21,754
561,74	17,766
561,94	16,479
562,13	16,649
562,33	20,584
562,52	17,821
562,72	16,371
562,91	15,046
563,11	17,394
563,30	18,832
563,50	13,832
563,69	14,619
563,89	17,202
564,08	16,396
564,28	15,857
564,47	15,341
564,67	16,606
564,86	17,818
565,06	15,233
565,25	15,693
565,45	17,205
565,64	20,426
565,84	16,283
566,03	13,589
566,23	15,355
566,42	17,052
566,62	15,061
566,81	14,828
567,01	15,180
567,20	18,274
567,40	14,580
567,59	15,334
567,79	16,890
567,98	19,610
568,18	17,645
568,37	17,336
568,57	17,505
568,76	17,080
568,96	17,293
569,15	16,552
569,35	16,732
569,54	18,253
569,73	17,015
569,93	15,137
570,12	14,620
570,32	17,776
570,51	17,079
570,71	17,494
570,90	17,790
571,10	15,742
571,29	14,996
571,49	15,692
571,68	16,211
571,87	17,295
572,07	16,422
572,26	13,989
572,46	17,663
572,65	15,887
572,85	14,248
573,04	17,060
573,24	16,464
573,43	18,025
573,62	18,881
573,82	18,867
574,01	18,129
574,21	16,837
574,40	14,257
574,60	13,103
574,79	19,566
574,98	15,775
575,18	16,748
575,37	13,806
575,57	16,819
575,76	17,684
575,96	17,193
576,15	16,487
576,34	17,546
576,54	18,165
576,73	18,644
576,93	16,961
577,12	17,361
577,31	16,798
577,51	16,040
577,70	16,800
577,90	16,791
578,09	16,606
578,28	15,780
578,48	16,550
578,67	19,411
578,87	18,092
579,06	15,776
579,25	17,029
579,45	17,708
579,64	16,578
579,84	16,806
580,03	15,808
580,22	19,728
580,42	16,144
580,61	15,625
580,81	18,567
581,00	18,432
581,19	18,355
581,39	16,543
581,58	17,722
581,77	17,117
581,97	19,171
582,16	17,290
582,35	17,626
582,55	18,140
582,74	20,182
582,94	18,056
583,13	15,939
583,32	18,986
583,52	17,575
583,71	17,872
583,90	17,077
584,10	18,618
584,29	19,106
584,48	16,960
584,68	17,339
584,87	19,761
585,06	20,177
585,26	17,904
585,45	19,058
585,65	20,439
585,84	18,372
586,03	16,875
586,23	16,261
586,42	18,809
586,61	21,375
586,81	18,331
587,00	18,035
587,19	17,526
587,39	21,373
587,58	18,253
587,77	19,274
587,97	19,462
588,16	18,882
588,35	19,342
588,54	19,555
588,74	18,309
588,93	21,814
589,12	20,312
589,32	19,155
589,51	19,569
589,70	16,964
589,90	19,324
590,09	19,461
590,28	22,409
590,48	18,171
590,67	20,520
590,86	20,322
591,06	18,134
591,25	22,459
591,44	20,301
591,63	19,788
591,83	20,936
592,02	20,336
592,21	20,112
592,41	19,674
592,60	22,114
592,79	21,432
592,98	20,603
593,18	20,120
593,37	20,938
593,56	23,177
593,76	21,378
593,95	19,434
594,14	20,081
594,33	22,529
594,53	21,024
594,72	20,853
594,91	24,041
595,10	21,719
595,30	21,718
595,49	19,119
595,68	22,729
595,88	23,307
596,07	20,554
596,26	22,414
596,45	24,022
596,65	18,344
596,84	20,757
597,03	22,331
597,22	24,927
597,42	25,086
597,61	22,909
597,80	24,284
597,99	23,792
598,19	23,819
598,38	22,681
598,57	21,356
598,76	24,377
598,95	24,399
599,15	23,326
599,34	23,727
599,53	23,112
599,72	23,003
599,92	23,624
600,11	23,509
600,30	23,954
600,49	26,369
600,69	21,357
600,88	24,764
601,07	25,901
601,26	24,620
601,45	23,239
601,65	22,534
601,84	24,400
602,03	24,550
602,22	25,457
602,42	23,519
602,61	24,390
602,80	24,952
602,99	25,179
603,18	21,471
603,38	26,126
603,57	24,672
603,76	24,271
603,95	23,682
604,14	25,848
604,34	24,991
604,53	24,392
604,72	25,859
604,91	25,147
605,10	25,570
605,29	24,928
605,49	21,884
605,68	24,512
605,87	25,558
606,06	23,784
606,25	24,717
606,45	23,927
606,64	25,562
606,83	24,194
607,02	24,918
607,21	26,131
607,40	25,807
607,60	23,143
607,79	22,641
607,98	22,383
608,17	24,827
608,36	24,081
608,55	24,526
608,75	25,194
608,94	23,700
609,13	20,306
609,32	19,685
609,51	21,946
609,70	19,938
609,89	20,780
610,09	20,248
610,28	22,982
610,47	21,460
610,66	20,593
610,85	18,913
611,04	22,589
611,23	19,411
611,43	19,456
611,62	20,211
611,81	20,405
612,00	20,602
612,19	21,168
612,38	20,956
612,57	23,008
612,77	22,081
612,96	22,614
613,15	21,576
613,34	24,624
613,53	24,702
613,72	23,227
613,91	21,901
614,10	23,051
614,29	25,521
614,49	23,298
614,68	23,291
614,87	25,160
615,06	27,286
615,25	22,790
615,44	26,731
615,63	22,844
615,82	24,370
616,01	24,446
616,21	24,594
616,40	26,537
616,59	28,460
616,78	25,056
616,97	25,932
617,16	26,055
617,35	25,678
617,54	26,243
617,73	27,302
617,92	24,973
618,11	27,869
618,31	24,403
618,50	27,969
618,69	26,819
618,88	26,997
619,07	24,966
619,26	25,304
619,45	25,763
619,64	25,859
619,83	23,897
620,02	22,899
620,21	27,937
620,40	26,074
620,59	25,387
620,78	23,825
620,97	27,992
621,17	23,546
621,36	24,121
621,55	24,178
621,74	25,845
621,93	27,262
622,12	25,394
622,31	24,949
622,50	24,454
622,69	29,378
622,88	27,406
623,07	26,447
623,26	27,296
623,45	30,140
623,64	26,468
623,83	25,484
624,02	28,058
624,21	28,044
624,40	25,573
624,59	23,914
624,78	28,520
624,97	29,226
625,16	24,843
625,35	22,794
625,54	24,925
625,73	25,310
625,92	25,950
626,12	27,912
626,31	28,410
626,50	29,702
626,69	27,225
626,88	25,528
627,07	28,229
627,26	27,595
627,45	26,959
627,64	25,525
627,83	27,141
628,02	26,736
628,21	24,467
628,40	26,751
628,59	28,691
628,78	27,595
628,97	26,351
629,16	25,050
629,35	26,705
629,54	28,451
629,73	25,365
629,92	25,350
630,10	26,905
630,29	26,352
630,48	26,161
630,67	24,877
630,86	28,888
631,05	27,051
631,24	27,785
631,43	24,269
631,62	26,486
631,81	26,227
632,00	27,033
632,19	25,114
632,38	26,426
632,57	27,985
632,76	27,691
632,95	25,769
633,14	28,965
633,33	28,921
633,52	27,826
633,71	29,106
633,90	25,202
634,09	26,569
634,28	27,425
634,47	26,495
634,66	27,129
634,85	27,860
635,04	30,126
635,22	27,234
635,41	27,530
635,60	29,780
635,79	29,780
635,98	25,890
636,17	26,931
636,36	26,903
636,55	26,492
636,74	25,318
636,93	28,580
637,12	29,329
637,31	27,252
637,50	27,154
637,69	30,218
637,87	28,096
638,06	26,492
638,25	27,428
638,44	27,187
638,63	26,226
638,82	26,715
639,01	28,576
639,20	27,266
639,39	28,720
639,58	26,125
639,77	30,059
639,95	27,646
640,14	28,613
640,33	25,331
640,52	26,029
640,71	29,746
640,90	27,663
641,09	29,182
641,28	27,775
641,47	28,411
641,66	27,819
641,84	28,154
642,03	26,519
642,22	27,680
642,41	31,233
642,60	27,099
642,79	27,610
642,98	29,007
643,17	28,296
643,35	25,989
643,54	27,607
643,73	28,665
643,92	29,075
644,11	26,761
644,30	26,400
644,49	29,742
644,67	27,521
644,86	26,308
645,05	29,804
645,24	27,751
645,43	27,622
645,62	27,506
645,81	28,216
645,99	28,932
646,18	28,177
646,37	25,279
646,56	26,334
646,75	28,754
646,94	30,175
647,13	26,854
647,31	27,463
647,50	28,268
647,69	29,652
647,88	27,980
648,07	27,822
648,26	31,733
648,44	28,665
648,63	28,583
648,82	26,996
649,01	29,906
649,20	27,477
649,38	27,710
649,57	27,275
649,76	26,964
649,95	30,430
650,14	25,886
650,33	27,028
650,51	27,667
650,70	28,885
650,89	26,999
651,08	27,867
651,27	27,200
651,45	27,030
651,64	25,955
651,83	28,299
652,02	27,651
652,21	28,732
652,39	28,656
652,58	29,995
652,77	27,978
652,96	30,152
653,15	28,461
653,33	27,895
653,52	28,676
653,71	31,090
653,90	30,197
654,09	28,247
654,27	29,184
654,46	29,517
654,65	29,651
654,84	29,873
655,02	30,363
655,21	29,533
655,40	31,385
655,59	29,196
655,77	30,192
655,96	29,845
656,15	29,889
656,34	29,684
656,53	28,723
656,71	29,741
656,90	30,063
657,09	29,950
657,28	30,486
657,46	28,378
657,65	28,448
657,84	28,500
658,03	29,016
658,21	28,119
658,40	27,438
658,59	29,565
658,78	29,265
658,96	27,749
659,15	28,288
659,34	28,207
659,52	29,089
659,71	28,415
659,90	26,671
660,09	28,235
660,27	29,089
660,46	29,883
660,65	27,324
660,84	28,005
661,02	29,878
661,21	29,685
661,40	29,013
661,58	28,161
661,77	29,473
661,96	25,978
662,15	27,719
662,33	28,514
662,52	28,399
662,71	28,936
662,89	28,349
663,08	26,872
663,27	27,159
663,45	29,122
663,64	29,562
663,83	26,409
664,02	27,495
664,20	28,673
664,39	27,121
664,58	30,263
664,76	28,348
664,95	27,727
665,14	27,872
665,32	26,537
665,51	27,813
665,70	28,594
665,88	29,547
666,07	27,245
666,26	30,412
666,44	29,626
666,63	26,053
666,82	28,267
667,00	28,470
667,19	28,187
667,38	27,442
667,56	28,797
667,75	28,238
667,94	28,001
668,12	26,455
668,31	29,062
668,50	28,286
668,68	28,099
668,87	26,613
669,06	26,720
669,24	29,342
669,43	27,412
669,62	26,026
669,80	26,329
669,99	27,962
670,18	29,485
670,36	26,129
670,55	28,230
670,74	28,266
670,92	27,877
671,11	29,029
671,29	27,480
671,48	27,799
671,67	27,451
671,85	28,813
672,04	27,304
672,23	26,872
672,41	27,800
672,60	27,857
672,78	26,195
672,97	28,151
673,16	29,065
673,34	27,873
673,53	26,235
673,71	28,393
673,90	29,175
674,09	28,480
674,27	26,590
674,46	26,765
674,64	28,587
674,83	27,902
675,02	25,718
675,20	27,236
675,39	27,168
675,57	28,589
675,76	26,174
675,95	29,062
676,13	28,967
676,32	27,723
676,50	27,013
676,69	25,381
676,88	28,782
677,06	26,914
677,25	28,587
677,43	30,792
677,62	28,572
677,80	27,375
677,99	27,175
678,18	29,385
678,36	30,844
678,55	26,658
678,73	26,825
678,92	29,390
679,10	27,362
679,29	26,670
679,48	25,580
679,66	27,982
679,85	27,797
680,03	27,144
680,22	27,231
680,40	26,546
680,59	26,765
680,77	27,889
680,96	27,481
681,15	28,343
681,33	29,346
681,52	25,663
681,70	28,839
681,89	29,135
682,07	28,892
682,26	28,476
682,44	27,137
682,63	28,943
682,81	30,063
683,00	27,717
683,18	25,570
683,37	28,936
683,55	27,305
683,74	27,810
683,92	35,210
684,11	29,067
684,29	29,202
684,48	27,498
684,67	27,980
684,85	27,798
685,04	29,175
685,22	27,764
685,41	27,055
685,59	29,084
685,78	26,973
685,96	28,017
686,15	27,014
686,33	27,679
686,52	26,179
686,70	27,515
686,89	28,164
687,07	28,617
687,26	28,568
687,44	27,528
687,62	25,826
687,81	28,076
687,99	28,885
688,18	27,909
688,36	28,779
688,55	29,643
688,73	26,979
688,92	26,683
689,10	28,356
689,29	28,199
689,47	29,606
689,66	26,257
689,84	28,019
690,03	27,327
690,21	27,207
690,40	26,151
690,58	26,345
690,76	27,295
690,95	29,270
691,13	26,577
691,32	27,895
691,50	27,486
691,69	28,904
691,87	27,041
692,06	26,268
692,24	25,946
692,43	28,112
692,61	25,437
692,79	26,662
692,98	26,284
693,16	29,593
693,35	27,612
693,53	27,566
693,72	29,433
693,90	30,153
694,08	26,941
694,27	26,775
694,45	28,502
694,64	32,055
694,82	27,665
695,01	26,299
695,19	27,388
695,37	27,618
695,56	26,798
695,74	27,255
695,93	30,197
696,11	28,144
696,29	28,479
696,48	28,620
696,66	30,269
696,85	27,843
697,03	25,716
697,21	28,839
697,40	27,534
697,58	28,149
697,77	29,010
697,95	28,146
698,13	28,375
698,32	27,699
698,50	28,232
698,69	27,090
698,87	28,642
699,05	28,762
699,24	25,621
699,42	27,330
699,60	24,957
699,79	26,299
699,97	25,766
700,16	26,192
700,34	29,768
700,52	26,990
700,71	26,959
700,89	26,902
701,07	27,503
701,26	28,556
701,44	26,154
701,63	25,647
701,81	26,640
701,99	28,377
702,18	26,587
702,36	26,030
702,54	26,531
702,73	27,892
702,91	25,948
703,09	27,071
703,28	25,898
703,46	28,145
703,64	26,782
703,83	26,883
704,01	28,823
704,19	26,858
704,38	25,470
704,56	26,502
704,74	29,611
704,93	28,272
705,11	27,557
705,29	27,094
705,48	34,312
705,66	28,816
705,84	25,751
706,03	25,652
706,21	27,164
706,39	27,713
706,58	25,950
706,76	26,229
706,94	28,480
707,12	28,783
707,31	26,861
707,49	27,971
707,67	27,186
707,86	29,903
708,04	26,069
708,22	27,413
708,41	27,570
708,59	27,190
708,77	25,551
708,95	27,902
709,14	31,042
709,32	28,371
709,50	26,198
709,69	26,825
709,87	27,731
710,05	27,797
710,23	26,844
710,42	25,124
710,60	28,666
710,78	29,720
710,97	27,615
711,15	27,070
711,33	29,817
711,51	27,118
711,70	26,218
711,88	26,753
712,06	29,743
712,24	28,923
712,43	28,686
712,61	26,844
712,79	28,052
712,97	26,622
713,16	26,390
713,34	26,389
713,52	29,365
713,70	28,421
713,89	26,793
714,07	27,532
714,25	28,109
714,43	29,427
714,62	25,883
714,80	27,654
714,98	25,277
715,16	27,637
715,35	26,643
715,53	25,685
715,71	28,504
715,89	30,008
716,07	29,477
716,26	30,117
716,44	28,994
716,62	28,199
716,80	26,986
716,99	27,437
717,17	30,434
717,35	27,017
717,53	25,280
717,71	24,641
717,90	28,874
718,08	28,900
718,26	23,808
718,44	26,892
718,62	30,155
718,81	27,016
718,99	26,464
719,17	25,540
719,35	26,667
719,53	27,363
719,72	25,605
719,90	27,720
720,08	25,775
720,26	30,300
720,44	26,103
720,62	25,991
720,81	29,392
720,99	31,742
721,17	26,743
721,35	29,829
721,53	26,566
721,72	29,551
721,90	27,497
722,08	27,917
722,26	29,845
722,44	27,900
722,62	26,799
722,81	25,983
722,99	28,461
723,17	26,792
723,35	28,768
723,53	25,809
723,71	29,655
723,89	28,466
724,08	23,383
724,26	26,808
724,44	25,505
724,62	28,710
724,80	25,920
724,98	27,936
725,16	33,417
725,35	27,505
725,53	27,274
725,71	26,085
725,89	27,347
726,07	29,060
726,25	29,733
726,43	26,834
726,61	28,104
726,80	29,424
726,98	26,155
727,16	26,933
727,34	30,135
727,52	28,633
727,70	25,704
727,88	25,426
728,06	25,241
728,25	25,042
728,43	26,885
728,61	27,397
728,79	25,913
728,97	27,759
729,15	26,910
729,33	27,080
729,51	28,965
729,69	28,858
729,87	27,568
730,06	27,804
730,24	27,447
730,42	29,848
730,60	26,445
730,78	28,574
730,96	27,432
731,14	27,866
731,32	28,753
731,50	27,543
731,68	27,192
731,86	28,937
732,04	28,189
732,22	25,408
732,41	30,499
732,59	25,948
732,77	30,194
732,95	30,077
733,13	28,344
733,31	29,161
733,49	26,258
733,67	26,214
733,85	28,663
734,03	27,840
734,21	27,360
734,39	28,303
734,57	29,165
734,75	30,469
734,93	25,135
735,11	28,041
735,29	26,973
735,47	30,098
735,65	26,237
735,84	26,681
736,02	28,409
736,20	31,865
736,38	26,830
736,56	27,064
736,74	29,589
736,92	26,891
737,10	26,680
737,28	27,319
737,46	27,646
737,64	27,116
737,82	26,373
738,00	29,243
738,18	31,532
738,36	26,977
738,54	27,090
738,72	26,166
738,90	28,945
739,08	29,480
739,26	25,230
739,44	27,000
739,62	29,802
739,80	29,059
739,98	28,315
740,16	27,976
740,34	29,276
740,52	30,738
740,70	27,560
740,88	26,144
741,06	28,865
741,24	29,694
741,42	28,768
741,60	25,546
741,78	28,306
741,96	27,431
742,14	26,790
742,32	26,281
742,50	27,127
742,68	28,173
742,86	27,324
743,04	26,457
743,21	29,883
743,39	27,960
743,57	28,267
743,75	26,826
743,93	25,152
744,11	24,291
744,29	25,602
744,47	26,212
744,65	28,469
744,83	27,912
745,01	25,994
745,19	28,695
745,37	30,948
745,55	29,022
745,73	28,136
745,91	27,083
746,09	27,056
746,27	25,468
746,45	25,271
746,62	27,232
746,80	27,446
746,98	28,148
747,16	26,293
747,34	26,597
747,52	28,240
747,70	27,148
747,88	25,785
748,06	26,979
748,24	29,536
748,42	28,614
748,60	27,659
748,78	27,076
748,95	28,879
749,13	30,781
749,31	27,470
749,49	26,810
749,67	28,803
749,85	30,256
750,03	26,729
750,21	26,350
750,39	28,142
750,57	28,609
750,74	28,404
750,92	27,152
751,10	28,720
751,28	25,922
751,46	26,319
751,64	28,391
751,82	29,253
752,00	29,704
752,17	29,287
752,35	25,765
752,53	27,147
752,71	28,345
752,89	27,716
753,07	27,316
753,25	28,695
753,43	27,001
753,60	29,827
753,78	25,911
753,96	30,010
754,14	28,433
754,32	28,938
754,50	27,139
754,68	29,083
754,85	28,123
755,03	27,578
755,21	27,076
755,39	31,833
755,57	28,719
755,75	27,697
755,92	26,806
756,10	30,503
756,28	29,299
756,46	26,048
756,64	29,309
756,82	30,533
756,99	27,531
757,17	27,471
757,35	26,393
757,53	30,421
757,71	31,888
757,89	26,481
758,06	27,032
758,24	28,701
758,42	28,624
758,60	26,738
758,78	27,144
758,95	29,092
759,13	29,548
759,31	27,028
759,49	27,120
759,67	28,949
759,84	27,843
760,02	28,638
760,20	26,667
760,38	29,077
760,56	27,687
760,73	29,659
760,91	27,639
761,09	30,809
761,27	28,117
761,45	27,624
761,62	26,671
761,80	27,333
761,98	28,640
762,16	28,665
762,33	27,282
762,51	29,933
762,69	27,253
762,87	26,241
763,05	26,756
763,22	27,776
763,40	26,909
763,58	26,791
763,76	28,918
763,93	29,222
764,11	31,425
764,29	26,995
764,47	28,824
764,64	28,680
764,82	30,326
765,00	26,102
765,18	26,379
765,35	27,518
765,53	27,689
765,71	27,256
765,89	25,999
766,06	27,224
766,24	29,703
766,42	26,684
766,60	24,848
766,77	27,984
766,95	25,994
767,13	25,993
767,30	28,064
767,48	28,291
767,66	28,503
767,84	25,484
768,01	28,674
768,19	28,671
768,37	29,250
768,54	27,990
768,72	28,677
768,90	28,001
769,08	26,788
769,25	27,924
769,43	26,214
769,61	26,822
769,78	29,366
769,96	27,604
770,14	27,556
770,31	31,099
770,49	29,160
770,67	28,657
770,85	28,091
771,02	28,472
771,20	26,067
771,38	29,039
771,55	26,266
771,73	26,807
771,91	30,872
772,08	29,408
772,26	28,898
772,44	29,360
772,61	27,253
772,79	25,780
772,97	26,053
773,14	25,131
773,32	29,337
773,50	25,158
773,67	28,907
773,85	28,421
774,03	31,379
774,20	26,500
774,38	27,150
774,56	28,910
774,73	26,032
774,91	25,442
775,09	28,385
775,26	29,637
775,44	30,054
775,61	28,692
775,79	27,158
775,97	30,089
776,14	26,765
776,32	27,432
776,50	26,765
776,67	28,653
776,85	29,901
777,03	26,054
777,20	25,399
777,38	30,098
777,55	29,569
777,73	24,714
777,91	26,107
778,08	28,706
778,26	28,001
778,43	27,652
778,61	25,043
778,79	27,729
778,96	27,853
779,14	25,938
779,32	29,489
779,49	29,139
779,67	31,121
779,84	28,363
780,02	29,670
780,20	23,971
780,37	30,338
780,55	22,087
780,72	30,681
780,90	30,582
781,07	28,173
781,25	30,116
781,43	27,877
781,60	27,401
781,78	28,926
781,95	28,232
782,13	29,045
782,30	29,883
782,48	29,868
782,66	26,689
782,83	25,895
783,01	34,622
783,18	30,004
783,36	30,440
783,53	28,572
783,71	26,792
783,89	27,001
784,06	28,948
784,24	25,973
784,41	31,933
784,59	28,572
784,76	28,691
784,94	27,506
785,11	28,137
785,29	27,443
785,46	29,554
785,64	27,603
785,82	31,204
785,99	29,097
786,17	27,454
786,34	27,945
786,52	29,603
786,69	30,155
786,87	29,813
787,04	28,087
787,22	27,232
787,39	28,926
787,57	29,893
787,74	27,694
787,92	32,566
788,09	30,579
788,27	27,575
788,44	27,840
788,62	33,332
788,79	27,730
788,97	31,531
789,14	31,570
789,32	29,664
789,49	27,091
789,67	28,312
789,84	26,495
790,02	30,454
790,19	26,773
790,37	27,653
790,54	28,664
790,72	34,800
790,89	31,366
791,07	32,984
791,24	26,350
791,42	34,314
791,59	30,364
791,77	28,682
791,94	23,961
792,12	27,988
792,29	30,209
792,47	29,995
792,64	31,778
792,81	31,905
792,99	28,185
793,16	30,476
793,34	29,086
793,51	28,883
793,69	32,058
793,86	28,176
794,04	32,202
794,21	30,832
794,39	28,040
794,56	28,317
794,73	29,364
794,91	34,359
795,08	28,865
795,26	28,067
795,43	28,093
795,61	34,019
795,78	30,553
795,95	30,518
796,13	28,827
796,30	30,682
796,48	26,787
796,65	29,172
796,83	28,157
797,00	31,797
797,17	26,887
797,35	29,983
797,52	30,179
797,70	35,048
797,87	29,471
798,04	24,763
798,22	29,832
798,39	30,107
798,57	29,746
798,74	33,286
798,91	26,956
799,09	27,582
799,26	29,731
799,44	31,896
799,61	25,063
799,78	28,925
799,96	35,951
800,13	27,674
800,31	29,021
800,48	34,424
800,65	35,923
800,83	29,239
801,00	27,833
801,17	31,170
801,35	29,580
801,52	28,658
801,70	31,657
801,87	29,146
802,04	34,689
802,22	26,639
802,39	27,690
802,56	37,434
802,74	31,020
802,91	28,125
803,08	28,282
803,26	30,454
803,43	31,973
803,61	31,630
803,78	31,033
803,95	33,237
804,13	34,171
804,30	28,497
804,47	32,953
804,65	32,425
804,82	33,300
804,99	28,869
805,17	28,779
805,34	37,600
805,51	36,699
805,69	27,512
805,86	26,484
806,03	36,812
806,21	36,416
806,38	28,175
806,55	32,684
806,72	34,042
806,90	35,469
807,07	29,864
807,24	28,931
807,42	29,680
807,59	30,692
807,76	27,468
807,94	28,151
808,11	35,090
808,28	32,528
808,45	28,211
808,63	29,066
808,80	33,178
808,97	32,852
809,15	27,262
809,32	34,364
809,49	29,626
809,67	31,014
809,84	32,406
810,01	36,479
810,18	42,687
810,36	33,084
810,53	31,584
810,70	31,576
810,87	32,907
811,05	30,128
811,22	31,634
811,39	28,401
811,57	36,863
811,74	31,578
811,91	28,373
812,08	27,394
812,26	31,345
812,43	28,995
812,60	33,965
812,77	30,669
812,95	34,307
813,12	35,926
813,29	26,752
813,46	33,651
813,64	32,650
813,81	32,539
813,98	31,859
814,15	37,672
814,32	37,099
814,50	36,257
814,67	33,759
814,84	30,736
815,01	31,607
815,19	26,747
815,36	27,878
815,53	29,659
815,70	32,396
815,87	33,959
816,05	27,372
816,22	32,041
816,39	36,757
816,56	38,766
816,74	32,214
816,91	32,320
817,08	39,056
817,25	33,732
817,42	29,168
817,60	33,441
817,77	30,979
817,94	34,222
818,11	30,025
818,28	36,449
818,45	40,914
818,63	35,780
818,80	29,945
818,97	32,324
819,14	43,918
819,31	40,034
819,49	40,244
819,66	29,505
819,83	35,992
820,00	37,505
820,17	28,511
820,34	32,088
820,52	37,564
820,69	36,104
820,86	31,402
821,03	29,974
821,20	32,641
821,37	36,900
821,55	28,308
821,72	28,370
821,89	34,032
822,06	41,306
822,23	31,045
822,40	29,069
822,57	34,255
822,75	38,905
822,92	27,126
823,09	28,999
823,26	36,587
823,43	35,828
823,60	30,880
823,77	35,311
823,94	43,516
824,12	42,400
824,29	29,375
824,46	34,312
824,63	43,905
824,80	37,622
824,97	33,507
825,14	34,901
825,31	33,526
825,49	34,079
825,66	31,335
825,83	29,976
826,00	38,291
826,17	44,156
826,34	32,918
826,51	28,659
826,68	30,620
826,85	38,933
827,02	29,985
827,20	28,364
827,37	33,462
827,54	39,286
827,71	32,087
827,88	33,934
828,05	40,427
828,22	36,311
828,39	41,473
828,56	36,136
828,73	37,032
828,90	35,091
829,07	31,041
829,25	36,289
829,42	38,282
829,59	29,137
829,76	27,780
829,93	30,965
830,10	39,831
830,27	33,239
830,44	30,045
830,61	32,316
830,78	46,831
830,95	35,268
831,12	30,260
831,29	30,902
831,46	29,075
831,63	34,922
831,80	34,626
831,97	34,800
832,14	40,673
832,31	51,640
832,48	33,553
832,65	34,559
832,83	36,998
833,00	39,257
833,17	33,581
833,34	38,117
833,51	40,001
833,68	45,077
833,85	37,728
834,02	26,538
834,19	41,095
834,36	42,480
834,53	22,771
834,70	32,452
834,87	52,308
835,04	34,491
835,21	31,059
835,38	30,404
835,55	31,973
835,72	53,484
835,89	37,070
836,06	34,076
836,23	50,177
836,40	28,828
836,57	30,691
836,74	43,601
836,91	39,478
837,08	49,041
837,25	38,033
837,42	23,703
837,59	34,584
837,76	42,088
837,93	31,740
838,09	29,443
838,26	44,707
838,43	43,936
838,60	38,546
838,77	35,840
838,94	38,838
839,11	29,491
839,28	31,459
839,45	33,022
839,62	39,721
839,79	32,397
839,96	40,941
840,13	48,702
840,30	30,778
840,47	31,841
840,64	37,629
840,81	37,926
840,98	38,296
841,15	43,909
841,32	29,279
841,48	41,237
841,65	47,784
841,82	34,715
841,99	38,106
842,16	28,563
842,33	43,089
842,50	41,333
842,67	32,019
842,84	31,779
843,01	41,397
843,18	39,697
843,35	33,960
843,52	31,399
843,68	43,081
843,85	46,911
844,02	32,884
844,19	29,762
844,36	49,649
844,53	41,242
844,70	34,405
844,87	47,866
845,04	44,430
845,21	23,111
845,37	46,989
845,54	35,816
845,71	39,227
845,88	53,574
846,05	30,197
846,22	27,463
846,39	38,523
846,56	54,159
846,72	18,924
846,89	29,302
847,06	56,611
847,23	53,678
847,40	25,385
847,57	29,716
847,74	44,595
847,90	56,293
848,07	44,336
848,24	35,318
848,41	36,492
848,58	60,156
848,75	38,592
848,92	32,682
849,08	42,224
849,25	45,112
849,42	23,484
849,59	44,940
849,76	40,864
849,93	42,078
850,09	43,017
850,26	28,209
850,43	52,266
850,60	29,757
850,77	32,258
850,94	32,156
851,10	33,954
851,27	39,944
851,44	25,607
851,61	34,031
851,78	49,913
851,95	53,337
852,11	29,585
852,28	44,573
852,45	42,284
852,62	50,755
852,79	34,757
852,95	42,434
853,12	48,671
853,29	36,484
853,46	30,578
853,63	46,476
853,79	41,746
853,96	31,519
854,13	39,528
854,30	28,240
854,46	64,959
854,63	42,271
854,80	40,365
854,97	31,617
855,14	51,981
855,30	54,455
855,47	26,598
855,64	38,979
855,81	51,364
855,97	56,065
856,14	44,452
856,31	30,619
856,48	56,633
856,65	60,305
856,81	30,604
856,98	24,000
857,15	34,481
857,32	49,955
857,48	25,274
857,65	63,802
857,82	47,982
857,99	47,400
858,15	43,283
858,32	37,373
858,49	51,746
858,65	63,175
858,82	37,961
858,99	30,153
859,16	62,920
859,32	66,354
859,49	39,943
859,66	43,038
859,83	50,584
859,99	45,065
860,16	51,340
860,33	39,078
860,49	64,143
860,66	59,627
860,83	51,371
861,00	43,348
861,16	56,671
861,33	57,833
861,50	39,411
861,66	47,892
861,83	60,908
862,00	53,104
862,16	52,108
862,33	45,128
862,50	101,305
862,67	57,067
862,83	51,652
863,00	64,860
863,17	73,343
863,33	40,975
863,50	12,216
863,67	38,124
863,83	58,032
864,00	66,506
864,17	39,429
864,33	41,060
864,50	46,332
864,67	45,228
864,83	30,325
865,00	37,844
865,17	48,255
865,33	67,656
865,50	26,934
865,67	17,320
865,83	74,206
866,00	76,246
866,17	36,687
866,33	47,759
866,50	74,934
866,66	67,015
866,83	54,686
867,00	51,519
867,16	50,307
867,33	77,908
867,50	0,131
867,66	36,894
867,83	68,069
868,00	45,111
868,16	50,592
868,33	19,853
868,49	55,623
868,66	70,679
868,83	49,547
868,99	43,647
869,16	104,573
869,32	69,593
869,49	55,815
869,66	16,736
869,82	73,816
869,99	83,205
870,15	28,991
870,32	73,654
870,49	91,217
870,65	109,169
870,82	60,447
870,98	49,777
871,15	122,033
871,32	59,013
871,48	1,917
871,65	31,430
871,81	53,161
871,98	55,757
872,15	12,979
872,31	43,497
872,48	104,798
872,64	69,199
872,81	18,786
872,97	70,088
873,14	96,652
873,31	70,356
873,47	55,264
873,64	83,671
873,80	117,087
873,97	99,308
874,13	17,062
874,30	51,000
874,46	106,630
874,63	64,302
874,80	47,134
874,96	44,129
875,13	128,318
875,29	71,960
875,46	64,705
875,62	28,055
875,79	106,303
875,95	43,591
876,12	56,618
876,28	2,031
876,45	99,310
876,61	56,454
876,78	68,225
876,94	28,139
877,11	97,279
877,27	107,477
877,44	90,042
877,60	75,968
877,77	90,461
877,94	132,705
878,10	64,231
878,27	91,921
878,43	149,917
878,60	51,247
878,76	49,366
878,93	20,069
879,09	99,321
879,26	126,560
879,42	68,908
879,58	82,613
879,75	100,260
879,91	92,925
880,08	-38,219
880,24	59,772
880,41	62,063
880,57	83,930
880,74	41,076
880,90	-5,174
881,07	85,810
881,23	145,458
881,40	49,733
881,56	75,332
881,73	118,239
881,89	102,707
882,06	-73,536
882,22	187,772
882,38	144,925
882,55	148,233
882,71	46,789
882,88	66,031
883,04	160,354
883,21	141,108
883,37	86,560
883,54	82,634
883,70	273,339
883,86	143,232
884,03	87,868
884,19	13,511
884,36	145,132
884,52	222,649
884,69	65,764
884,85	66,787
885,01	126,573
885,18	126,162
885,34	64,383
885,51	27,513
885,67	76,325
>>>>> Data<<<<< Espectral Procesado Extremo
