Fichero De Datos De SpectraSuite
++++++++++++++++++++++++++++++++++++
Fecha: Wed Apr 22 13:14:37 CEST 2009
Usuario: evoflor
Presente Oscuro Del Espectro: Sí
La Referencia de Presente Del Espectro De: Sí
Muestreados de los componentes de Número de espectros: 1
Espectrómetros: USB4F02353
Tiempo de integración (usec): 500000 (USB4F02353)
Promedio de Espectros Hechos un: 5 (USB4F02353)
El Alisar Del Furgón: 0 (USB4F02353)
Párrafo de de Corregir del la del del de Eléctrica del obscuridad: Sí (USB4F02353)
Estrobo/Lámpara Permitido: No (USB4F02353)
Correct for Detector Non-linearity: No (USB4F02353)
Párrafo de de Corregir del la del del de Externa del luz: No (USB4F02353)
Procesado del espectro de Número de pixeles en: 3648
>>>>> Comienza Data<<<<< Espectral Procesado Del EL
177,79	314,053
178,00	314,053
178,22	314,053
178,44	2065,769
178,66	-250,358
178,88	193,111
179,09	-375,809
179,31	203,678
179,53	543,700
179,75	211,792
179,96	838,922
180,18	-443,431
180,40	593,678
180,62	377,493
180,83	-274,731
181,05	-2591,646
181,27	-80215,000
181,49	25,185
181,70	723,904
181,92	1215,812
182,14	485,587
182,36	47,964
182,58	-217,150
182,79	1165,692
183,01	-98,464
183,23	53,583
183,45	-291,123
183,66	-323,075
183,88	916,559
184,10	-4338,455
184,32	345,582
184,53	335,715
184,75	-236,878
184,97	55,049
185,18	-243,825
185,40	-714,495
185,62	105,730
185,84	165,317
186,05	213,378
186,27	-155,506
186,49	4677,500
186,71	7,337
186,92	212,352
187,14	-347,716
187,36	109,722
187,58	84,829
187,79	-54,886
188,01	427,226
188,23	-307,145
188,45	-95,683
188,66	233,549
188,88	-4207,545
189,10	-1972,150
189,31	-103,097
189,53	-67,126
189,75	442,080
189,97	374,288
190,18	-281,481
190,40	545,971
190,62	-118,174
190,83	-444,971
191,05	256,304
191,27	38,900
191,49	361,176
191,70	-541,418
191,92	-847,585
192,14	-89,623
192,35	735,584
192,57	5223,286
192,79	-99,968
193,01	161,452
193,22	67,436
193,44	-96,954
193,66	190,355
193,87	129,368
194,09	-49,091
194,31	168,420
194,53	963,741
194,74	-31,750
194,96	96,822
195,18	139,794
195,39	-432,493
195,61	-203,225
195,83	-262,424
196,04	176,841
196,26	-204,095
196,48	51,478
196,70	261,461
196,91	136,066
197,13	164,342
197,35	35,101
197,56	691,378
197,78	1612,799
198,00	699,406
198,21	419,976
198,43	-738,459
198,65	163,748
198,86	324,155
199,08	203,984
199,30	278,978
199,51	-651,189
199,73	253,088
199,95	532,710
200,16	782,750
200,38	297,917
200,60	119,565
200,81	119,732
201,03	120,149
201,25	-1891,150
201,46	161,673
201,68	90,024
201,90	4277,614
202,11	-519,141
202,33	171,481
202,55	878,937
202,76	-86,630
202,98	213,641
203,20	-273,149
203,41	-417,447
203,63	219,779
203,85	-202615,000
204,06	194,466
204,28	-349,434
204,50	196,795
204,71	321,405
204,93	-35,080
205,15	363,599
205,36	-241,138
205,58	233,426
205,80	-232,048
206,01	123,867
206,23	188,270
206,45	346,131
206,66	195,811
206,88	-4,731
207,10	202,761
207,31	441,212
207,53	67,186
207,75	85,185
207,96	1297,127
208,18	-178,353
208,39	158,045
208,61	4220,429
208,83	-412,749
209,04	173,694
209,26	-427,719
209,48	443,966
209,69	273,089
209,91	891,267
210,13	28,773
210,34	-32,409
210,56	240,304
210,77	-2105,630
210,99	181,544
211,21	5883,235
211,42	-280,022
211,64	-1,861
211,86	341,923
212,07	193,952
212,29	226,760
212,50	155,541
212,72	138,904
212,94	182,150
213,15	203,530
213,37	185,980
213,58	-227,749
213,80	-3668,393
214,02	13718,529
214,23	468,276
214,45	295,459
214,67	1118,110
214,88	-54,748
215,10	-344,040
215,31	-94,072
215,53	80,034
215,75	324,200
215,96	1783,944
216,18	-74,437
216,39	212,955
216,61	444,356
216,83	498,728
217,04	1700,169
217,26	87,282
217,47	108,092
217,69	429,605
217,91	113,363
218,12	-30715,000
218,34	145,659
218,55	446,724
218,77	125,483
218,99	146,207
219,20	-187,854
219,42	425,480
219,63	-149,925
219,85	-113,752
220,06	215,058
220,28	196,056
220,50	145,784
220,71	113,969
220,93	4807,830
221,14	-1945,150
221,36	30,755
221,58	-93,482
221,79	24,249
222,01	1560,474
222,22	1102,072
222,44	152,978
222,65	114,811
222,87	-62,133
223,09	135,577
223,30	119,735
223,52	207,332
223,73	211,418
223,95	59,739
224,16	185,804
224,38	475,865
224,60	120,463
224,81	100,499
225,03	158,717
225,24	174,107
225,46	71,952
225,67	36,481
225,89	23,711
226,10	691,611
226,32	627,320
226,54	20,699
226,75	67,219
226,97	151,781
227,18	189,958
227,40	58,754
227,61	34,346
227,83	81,629
228,04	230,884
228,26	57,882
228,47	38,516
228,69	266,765
228,91	157,413
229,12	152,450
229,34	60,425
229,55	69,072
229,77	36,324
229,98	30,175
230,20	58,732
230,41	16,754
230,63	179,646
230,84	56,198
231,06	35,408
231,27	35,723
231,49	59,876
231,71	42,869
231,92	16,058
232,14	24,665
232,35	60,801
232,57	40,890
232,78	11,982
233,00	43,385
233,21	58,928
233,43	18,955
233,64	21,734
233,86	37,150
234,07	48,288
234,29	31,823
234,50	22,933
234,72	56,159
234,93	34,531
235,15	16,150
235,36	33,305
235,58	37,215
235,79	57,046
236,01	13,358
236,22	10,565
236,44	52,574
236,65	24,616
236,87	18,772
237,08	0,733
237,30	1,439
237,51	35,003
237,73	-0,666
237,94	17,643
238,16	24,086
238,37	26,391
238,59	5,663
238,80	19,917
239,02	3,748
239,23	26,905
239,45	-0,473
239,66	28,177
239,88	53,471
240,09	24,472
240,31	9,406
240,52	9,879
240,74	28,125
240,95	23,133
241,17	5,582
241,38	5,992
241,60	20,413
241,81	32,501
242,03	11,227
242,24	7,096
242,46	23,283
242,67	7,075
242,89	14,253
243,10	16,556
243,32	18,670
243,53	25,299
243,75	9,782
243,96	5,731
244,18	15,877
244,39	13,730
244,60	10,934
244,82	7,045
245,03	27,777
245,25	15,079
245,46	28,964
245,68	10,583
245,89	17,512
246,11	16,464
246,32	13,131
246,54	7,074
246,75	16,603
246,97	11,002
247,18	19,549
247,39	6,894
247,61	11,361
247,82	21,351
248,04	7,062
248,25	9,196
248,47	15,504
248,68	12,784
248,90	7,673
249,11	7,241
249,33	25,279
249,54	10,834
249,75	10,889
249,97	5,424
250,18	19,174
250,40	20,743
250,61	-10,787
250,83	6,465
251,04	6,578
251,25	18,111
251,47	1,717
251,68	7,497
251,90	16,690
252,11	17,208
252,33	5,064
252,54	10,067
252,76	10,698
252,97	5,435
253,18	2,436
253,40	6,690
253,61	6,752
253,83	11,375
254,04	13,331
254,25	4,529
254,47	8,708
254,68	12,583
254,90	4,222
255,11	12,698
255,33	10,143
255,54	11,785
255,75	7,299
255,97	11,565
256,18	5,774
256,40	12,294
256,61	10,607
256,82	3,627
257,04	14,495
257,25	6,629
257,47	10,006
257,68	7,113
257,89	8,864
258,11	13,699
258,32	8,701
258,54	9,516
258,75	15,128
258,96	12,516
259,18	10,760
259,39	7,953
259,61	17,501
259,82	6,094
260,03	11,341
260,25	10,163
260,46	11,346
260,68	6,553
260,89	5,085
261,10	6,767
261,32	7,667
261,53	4,064
261,75	9,874
261,96	2,500
262,17	11,889
262,39	12,526
262,60	5,009
262,81	2,954
263,03	14,502
263,24	9,072
263,46	6,320
263,67	5,667
263,88	10,999
264,10	8,538
264,31	5,563
264,52	8,408
264,74	11,918
264,95	9,413
265,17	6,327
265,38	12,411
265,59	9,553
265,81	14,745
266,02	1,757
266,23	6,334
266,45	11,027
266,66	16,184
266,87	11,239
267,09	8,359
267,30	13,801
267,52	9,766
267,73	7,642
267,94	12,050
268,16	9,259
268,37	4,657
268,58	10,358
268,80	8,699
269,01	10,296
269,22	11,124
269,44	8,550
269,65	6,404
269,86	4,492
270,08	11,548
270,29	7,386
270,50	7,404
270,72	12,929
270,93	5,714
271,14	2,415
271,36	5,067
271,57	11,280
271,78	8,266
272,00	9,863
272,21	8,220
272,42	7,739
272,64	9,951
272,85	3,927
273,06	4,769
273,28	13,533
273,49	11,020
273,70	8,204
273,92	9,109
274,13	14,107
274,34	9,658
274,56	8,526
274,77	2,568
274,98	12,081
275,20	7,456
275,41	11,559
275,62	9,494
275,84	12,391
276,05	14,595
276,26	5,329
276,47	1,949
276,69	12,213
276,90	8,166
277,11	4,561
277,33	4,791
277,54	11,317
277,75	7,665
277,97	4,396
278,18	4,921
278,39	12,373
278,61	7,302
278,82	7,233
279,03	7,308
279,24	5,806
279,46	7,817
279,67	11,652
279,88	8,988
280,10	14,441
280,31	6,416
280,52	10,497
280,73	3,070
280,95	11,633
281,16	11,504
281,37	8,050
281,59	9,765
281,80	18,690
282,01	8,410
282,22	3,244
282,44	5,985
282,65	12,572
282,86	9,342
283,08	4,993
283,29	7,074
283,50	6,860
283,71	7,370
283,93	8,630
284,14	6,848
284,35	7,600
284,56	9,802
284,78	3,918
284,99	9,479
285,20	10,433
285,42	9,515
285,63	3,059
285,84	1,819
286,05	6,941
286,27	8,960
286,48	5,090
286,69	4,739
286,90	5,844
287,12	6,541
287,33	5,748
287,54	2,867
287,75	10,335
287,97	7,189
288,18	5,516
288,39	3,651
288,60	8,364
288,82	5,530
289,03	5,804
289,24	7,920
289,45	11,481
289,67	8,061
289,88	4,094
290,09	8,110
290,30	7,290
290,52	5,069
290,73	6,572
290,94	5,307
291,15	8,407
291,37	7,835
291,58	6,307
291,79	6,515
292,00	11,115
292,21	7,809
292,43	8,380
292,64	2,505
292,85	4,583
293,06	10,160
293,28	4,893
293,49	2,036
293,70	9,127
293,91	5,638
294,12	6,305
294,34	5,019
294,55	8,045
294,76	7,506
294,97	10,750
295,19	4,620
295,40	4,163
295,61	7,279
295,82	1,576
296,03	8,014
296,25	4,853
296,46	6,164
296,67	4,690
296,88	0,687
297,09	8,849
297,31	6,480
297,52	7,527
297,73	4,986
297,94	9,792
298,15	7,657
298,37	7,034
298,58	10,219
298,79	7,329
299,00	1,793
299,21	4,190
299,43	3,918
299,64	12,762
299,85	8,159
300,06	4,178
300,27	5,417
300,49	12,104
300,70	8,960
300,91	6,645
301,12	4,204
301,33	12,311
301,54	2,609
301,76	6,008
301,97	4,846
302,18	6,919
302,39	9,832
302,60	16,806
302,82	7,297
303,03	11,085
303,24	10,087
303,45	7,431
303,66	6,164
303,87	5,935
304,09	9,044
304,30	5,252
304,51	5,405
304,72	4,018
304,93	9,633
305,14	6,581
305,36	2,174
305,57	4,274
305,78	8,770
305,99	7,077
306,20	5,467
306,41	4,665
306,62	4,854
306,84	4,055
307,05	3,895
307,26	6,727
307,47	10,659
307,68	6,029
307,89	6,182
308,11	8,114
308,32	5,253
308,53	4,688
308,74	3,105
308,95	6,849
309,16	8,898
309,37	10,252
309,59	3,972
309,80	7,277
310,01	8,132
310,22	6,847
310,43	3,090
310,64	5,565
310,85	9,152
311,06	6,977
311,28	5,797
311,49	8,306
311,70	8,514
311,91	2,816
312,12	5,405
312,33	11,165
312,54	9,046
312,75	6,882
312,97	4,678
313,18	7,677
313,39	5,018
313,60	5,616
313,81	5,214
314,02	6,916
314,23	8,730
314,44	1,497
314,65	5,829
314,87	2,912
315,08	5,716
315,29	8,321
315,50	6,901
315,71	8,207
315,92	9,081
316,13	7,085
316,34	6,618
316,55	10,878
316,77	2,349
316,98	5,371
317,19	6,093
317,40	8,422
317,61	9,261
317,82	5,036
318,03	5,145
318,24	6,942
318,45	10,630
318,66	5,252
318,87	2,862
319,09	8,141
319,30	8,909
319,51	7,868
319,72	7,160
319,93	8,906
320,14	8,846
320,35	7,514
320,56	1,071
320,77	6,384
320,98	10,662
321,19	8,110
321,40	3,548
321,62	7,909
321,83	6,272
322,04	6,150
322,25	7,037
322,46	14,074
322,67	8,652
322,88	7,818
323,09	5,025
323,30	9,371
323,51	9,856
323,72	8,171
323,93	3,854
324,14	6,494
324,35	3,324
324,56	2,152
324,77	5,802
324,99	6,298
325,20	2,078
325,41	5,248
325,62	4,746
325,83	4,752
326,04	4,545
326,25	8,833
326,46	4,373
326,67	4,012
326,88	7,888
327,09	4,075
327,30	3,664
327,51	7,106
327,72	7,262
327,93	8,207
328,14	5,149
328,35	7,587
328,56	8,157
328,77	6,729
328,98	9,557
329,19	9,099
329,40	9,673
329,61	7,036
329,82	4,624
330,04	5,512
330,25	5,785
330,46	6,015
330,67	4,764
330,88	5,221
331,09	6,411
331,30	6,502
331,51	6,859
331,72	7,228
331,93	8,790
332,14	4,786
332,35	7,888
332,56	6,711
332,77	8,260
332,98	1,790
333,19	5,575
333,40	8,835
333,61	5,818
333,82	8,970
334,03	8,651
334,24	11,051
334,45	7,698
334,66	5,749
334,87	7,135
335,08	4,773
335,29	3,741
335,50	4,448
335,71	4,382
335,92	9,342
336,13	10,294
336,34	3,467
336,55	7,506
336,76	8,918
336,97	8,623
337,18	6,753
337,39	6,796
337,60	7,529
337,81	5,020
338,02	4,303
338,23	4,254
338,44	4,757
338,65	8,642
338,86	7,723
339,07	4,502
339,28	6,001
339,49	6,881
339,70	6,047
339,91	7,469
340,11	8,277
340,32	5,322
340,53	2,227
340,74	2,089
340,95	4,976
341,16	9,465
341,37	3,943
341,58	6,176
341,79	1,157
342,00	6,627
342,21	6,140
342,42	5,664
342,63	9,241
342,84	4,617
343,05	5,237
343,26	8,195
343,47	7,627
343,68	4,798
343,89	4,527
344,10	7,003
344,31	5,695
344,52	6,355
344,73	6,517
344,94	5,746
345,14	6,621
345,35	8,398
345,56	3,954
345,77	5,587
345,98	5,957
346,19	7,666
346,40	4,100
346,61	7,443
346,82	6,988
347,03	7,718
347,24	9,370
347,45	3,616
347,66	9,025
347,87	5,669
348,08	6,542
348,28	3,397
348,49	6,987
348,70	8,296
348,91	9,618
349,12	5,395
349,33	20,173
349,54	4,545
349,75	7,190
349,96	5,766
350,17	6,751
350,38	2,225
350,59	8,926
350,80	4,916
351,00	7,550
351,21	12,303
351,42	6,311
351,63	4,483
351,84	7,119
352,05	11,686
352,26	4,655
352,47	7,478
352,68	9,602
352,89	10,740
353,09	7,981
353,30	3,104
353,51	9,141
353,72	13,065
353,93	11,050
354,14	5,335
354,35	8,027
354,56	11,880
354,77	6,283
354,98	2,127
355,18	9,819
355,39	12,415
355,60	4,507
355,81	8,423
356,02	7,525
356,23	7,391
356,44	7,141
356,65	7,480
356,85	12,314
357,06	8,074
357,27	8,508
357,48	0,993
357,69	8,286
357,90	8,621
358,11	3,457
358,32	4,061
358,52	10,013
358,73	7,715
358,94	3,984
359,15	8,127
359,36	9,680
359,57	6,588
359,78	8,038
359,98	5,468
360,19	1,420
360,40	7,789
360,61	9,288
360,82	4,594
361,03	15,050
361,24	9,735
361,44	1,698
361,65	6,695
361,86	5,684
362,07	7,843
362,28	5,422
362,49	3,168
362,70	9,424
362,90	9,371
363,11	5,047
363,32	1,514
363,53	8,655
363,74	9,536
363,95	9,330
364,15	8,077
364,36	9,881
364,57	6,684
364,78	8,919
364,99	3,930
365,20	9,515
365,40	9,699
365,61	5,874
365,82	9,826
366,03	9,923
366,24	7,234
366,45	5,690
366,65	5,004
366,86	7,954
367,07	8,102
367,28	7,761
367,49	4,012
367,69	14,248
367,90	8,498
368,11	5,275
368,32	4,409
368,53	9,383
368,73	9,649
368,94	4,114
369,15	8,205
369,36	12,040
369,57	7,032
369,78	8,871
369,98	7,057
370,19	11,988
370,40	6,011
370,61	8,177
370,82	5,810
371,02	12,901
371,23	11,501
371,44	6,475
371,65	5,218
371,85	12,201
372,06	9,192
372,27	6,870
372,48	9,258
372,69	9,763
372,89	8,053
373,10	4,551
373,31	6,833
373,52	10,632
373,73	15,118
373,93	8,251
374,14	8,398
374,35	10,932
374,56	13,877
374,76	9,101
374,97	7,860
375,18	10,061
375,39	8,884
375,60	11,519
375,80	7,000
376,01	9,277
376,22	10,620
376,43	10,102
376,63	7,303
376,84	9,163
377,05	10,962
377,26	11,165
377,46	3,752
377,67	9,209
377,88	5,440
378,09	9,360
378,29	6,281
378,50	10,829
378,71	10,438
378,92	6,522
379,12	10,121
379,33	9,202
379,54	7,321
379,75	13,148
379,95	10,877
380,16	13,875
380,37	12,726
380,58	11,244
380,78	10,686
380,99	8,605
381,20	11,506
381,41	7,826
381,61	10,041
381,82	10,852
382,03	12,852
382,24	14,551
382,44	11,218
382,65	12,623
382,86	13,362
383,06	11,672
383,27	11,524
383,48	12,181
383,69	18,998
383,89	14,065
384,10	13,182
384,31	12,373
384,51	14,036
384,72	15,178
384,93	11,942
385,14	13,743
385,34	15,404
385,55	12,247
385,76	13,527
385,96	18,081
386,17	14,229
386,38	15,327
386,59	17,198
386,79	15,420
387,00	20,573
387,21	17,895
387,41	14,190
387,62	12,947
387,83	22,220
388,03	17,129
388,24	10,364
388,45	17,201
388,66	19,474
388,86	17,690
389,07	15,132
389,28	19,991
389,48	18,707
389,69	16,181
389,90	16,786
390,10	21,806
390,31	23,999
390,52	13,413
390,72	17,101
390,93	20,157
391,14	22,101
391,34	18,647
391,55	21,759
391,76	22,149
391,96	21,624
392,17	17,684
392,38	22,053
392,58	21,300
392,79	20,353
393,00	17,161
393,20	16,127
393,41	24,972
393,62	26,995
393,82	21,545
394,03	21,801
394,24	21,221
394,44	27,866
394,65	21,964
394,86	22,209
395,06	27,997
395,27	23,810
395,48	21,186
395,68	23,141
395,89	23,793
396,10	26,752
396,30	20,271
396,51	20,180
396,72	22,986
396,92	20,518
397,13	26,174
397,34	22,224
397,54	29,336
397,75	26,075
397,95	25,005
398,16	27,953
398,37	26,799
398,57	24,661
398,78	28,703
398,99	26,934
399,19	29,963
399,40	32,555
399,60	23,646
399,81	28,925
400,02	33,597
400,22	33,806
400,43	28,956
400,64	28,401
400,84	27,853
401,05	37,558
401,25	31,001
401,46	29,609
401,67	32,198
401,87	29,975
402,08	26,637
402,29	27,049
402,49	35,590
402,70	34,843
402,90	27,251
403,11	31,912
403,32	29,832
403,52	30,025
403,73	32,570
403,93	30,750
404,14	35,981
404,35	33,680
404,55	30,258
404,76	31,260
404,96	33,856
405,17	36,703
405,38	35,732
405,58	35,132
405,79	33,195
405,99	38,947
406,20	35,004
406,40	29,506
406,61	40,255
406,82	37,116
407,02	38,525
407,23	33,550
407,43	34,206
407,64	35,534
407,85	33,806
408,05	30,775
408,26	47,455
408,46	44,291
408,67	32,653
408,87	38,352
409,08	38,224
409,29	41,537
409,49	41,559
409,70	36,655
409,90	40,340
410,11	37,795
410,31	40,664
410,52	34,118
410,72	38,105
410,93	42,144
411,14	39,328
411,34	38,550
411,55	38,999
411,75	43,510
411,96	37,872
412,16	40,633
412,37	37,559
412,57	40,324
412,78	42,386
412,99	37,519
413,19	41,336
413,40	41,625
413,60	34,576
413,81	37,584
414,01	41,344
414,22	39,335
414,42	38,123
414,63	39,229
414,83	44,318
415,04	43,725
415,24	43,075
415,45	38,108
415,65	42,266
415,86	44,759
416,07	42,281
416,27	39,745
416,48	45,134
416,68	47,036
416,89	37,726
417,09	39,828
417,30	48,036
417,50	41,884
417,71	41,101
417,91	43,816
418,12	42,646
418,32	42,093
418,53	44,175
418,73	44,220
418,94	42,369
419,14	46,028
419,35	41,377
419,55	45,396
419,76	45,416
419,96	40,232
420,17	40,689
420,37	41,516
420,58	48,529
420,78	43,768
420,99	42,325
421,19	41,923
421,40	41,161
421,60	47,237
421,81	39,986
422,01	42,765
422,22	42,910
422,42	46,728
422,63	44,111
422,83	41,882
423,04	47,937
423,24	52,226
423,45	40,840
423,65	42,848
423,86	49,452
424,06	43,927
424,27	41,356
424,47	38,187
424,67	40,571
424,88	44,225
425,08	40,246
425,29	47,892
425,49	42,746
425,70	40,647
425,90	47,044
426,11	45,102
426,31	43,862
426,52	44,586
426,72	43,318
426,93	44,043
427,13	46,772
427,33	43,861
427,54	44,462
427,74	49,496
427,95	50,508
428,15	41,197
428,36	46,628
428,56	43,899
428,77	45,632
428,97	40,188
429,18	46,868
429,38	44,213
429,58	47,178
429,79	51,115
429,99	42,246
430,20	41,304
430,40	47,864
430,61	43,938
430,81	40,532
431,01	45,761
431,22	46,826
431,42	45,608
431,63	41,287
431,83	41,760
432,04	47,038
432,24	48,813
432,44	40,692
432,65	40,970
432,85	42,751
433,06	45,472
433,26	39,187
433,47	40,957
433,67	42,665
433,87	44,258
434,08	37,158
434,28	39,209
434,49	42,567
434,69	45,712
434,89	39,904
435,10	42,249
435,30	46,826
435,51	40,031
435,71	38,957
435,91	40,643
436,12	42,386
436,32	42,707
436,53	43,851
436,73	44,612
436,93	45,767
437,14	43,493
437,34	44,961
437,55	43,337
437,75	45,262
437,95	51,079
438,16	40,818
438,36	42,182
438,57	41,916
438,77	44,140
438,97	45,032
439,18	48,222
439,38	45,277
439,58	43,812
439,79	47,175
439,99	46,067
440,20	51,343
440,40	47,951
440,60	43,650
440,81	44,365
441,01	46,521
441,21	50,131
441,42	47,749
441,62	45,195
441,83	43,574
442,03	45,009
442,23	42,941
442,44	45,491
442,64	46,813
442,84	43,665
443,05	41,720
443,25	39,978
443,45	48,308
443,66	45,204
443,86	38,507
444,06	45,381
444,27	41,389
444,47	43,424
444,67	40,990
444,88	46,052
445,08	42,998
445,28	46,465
445,49	44,007
445,69	39,727
445,90	45,884
446,10	48,860
446,30	42,165
446,51	43,621
446,71	47,485
446,91	50,899
447,12	51,628
447,32	42,905
447,52	50,987
447,72	44,039
447,93	42,550
448,13	40,633
448,33	51,539
448,54	50,046
448,74	40,927
448,94	43,580
449,15	50,820
449,35	54,169
449,55	45,040
449,76	47,249
449,96	42,931
450,16	47,084
450,37	44,363
450,57	44,467
450,77	40,730
450,98	46,702
451,18	44,556
451,38	44,807
451,58	45,564
451,79	46,560
451,99	49,003
452,19	44,362
452,40	48,743
452,60	40,740
452,80	36,947
453,00	46,732
453,21	43,445
453,41	46,589
453,61	44,264
453,82	44,803
454,02	43,765
454,22	49,684
454,42	45,175
454,63	39,324
454,83	44,071
455,03	49,313
455,24	45,510
455,44	41,983
455,64	41,557
455,84	43,187
456,05	39,515
456,25	46,252
456,45	45,956
456,65	43,128
456,86	44,347
457,06	45,605
457,26	53,754
457,47	48,342
457,67	46,781
457,87	39,808
458,07	46,821
458,28	45,387
458,48	47,747
458,68	40,652
458,88	48,217
459,09	45,090
459,29	48,312
459,49	43,031
459,69	46,037
459,90	46,840
460,10	42,912
460,30	43,050
460,50	41,501
460,71	46,938
460,91	42,770
461,11	43,737
461,31	40,576
461,52	49,374
461,72	42,234
461,92	44,630
462,12	54,037
462,32	40,492
462,53	38,912
462,73	45,960
462,93	48,218
463,13	52,017
463,34	42,378
463,54	45,110
463,74	46,695
463,94	44,364
464,14	42,743
464,35	39,668
464,55	47,818
464,75	47,738
464,95	43,025
465,16	37,811
465,36	46,522
465,56	41,766
465,76	46,955
465,96	39,122
466,17	42,476
466,37	41,349
466,57	45,747
466,77	43,019
466,97	41,392
467,18	48,030
467,38	45,451
467,58	43,887
467,78	48,575
467,98	42,612
468,19	44,464
468,39	48,587
468,59	47,240
468,79	41,438
468,99	44,863
469,19	37,810
469,40	44,251
469,60	44,603
469,80	39,598
470,00	46,958
470,20	45,925
470,41	42,194
470,61	46,434
470,81	46,203
471,01	39,999
471,21	44,251
471,41	42,837
471,62	43,153
471,82	42,760
472,02	41,698
472,22	41,892
472,42	43,319
472,62	45,272
472,83	41,193
473,03	47,214
473,23	43,626
473,43	49,229
473,63	44,606
473,83	44,197
474,03	39,620
474,24	46,310
474,44	42,553
474,64	42,816
474,84	41,834
475,04	42,926
475,24	47,012
475,45	42,500
475,65	40,366
475,85	47,019
476,05	38,249
476,25	40,583
476,45	40,521
476,65	49,701
476,85	44,771
477,06	42,593
477,26	38,727
477,46	41,947
477,66	44,322
477,86	42,961
478,06	40,725
478,26	49,084
478,46	41,789
478,67	41,547
478,87	41,099
479,07	43,823
479,27	42,829
479,47	43,773
479,67	35,328
479,87	39,622
480,07	45,927
480,28	39,236
480,48	37,113
480,68	42,416
480,88	45,940
481,08	40,768
481,28	44,112
481,48	46,097
481,68	37,644
481,88	37,417
482,08	40,171
482,29	46,084
482,49	39,795
482,69	41,133
482,89	38,656
483,09	44,992
483,29	41,527
483,49	39,233
483,69	40,068
483,89	37,987
484,09	40,477
484,29	35,588
484,50	36,558
484,70	40,774
484,90	39,262
485,10	38,069
485,30	39,333
485,50	43,463
485,70	38,706
485,90	36,960
486,10	35,436
486,30	36,552
486,50	41,094
486,70	38,216
486,90	37,521
487,10	39,946
487,30	39,358
487,51	38,937
487,71	37,081
487,91	38,432
488,11	41,596
488,31	35,574
488,51	38,590
488,71	39,380
488,91	39,972
489,11	34,172
489,31	38,662
489,51	36,129
489,71	38,970
489,91	36,615
490,11	37,987
490,31	38,421
490,51	37,972
490,71	39,012
490,91	36,552
491,11	41,634
491,31	38,977
491,51	35,851
491,72	37,184
491,92	38,761
492,12	42,742
492,32	38,428
492,52	38,528
492,72	39,111
492,92	40,243
493,12	38,285
493,32	35,311
493,52	36,027
493,72	39,202
493,92	42,146
494,12	38,713
494,32	37,981
494,52	37,122
494,72	36,399
494,92	37,776
495,12	38,556
495,32	44,311
495,52	37,924
495,72	38,312
495,92	41,478
496,12	43,774
496,32	36,699
496,52	36,185
496,72	38,144
496,92	39,694
497,12	38,011
497,32	39,215
497,52	42,073
497,72	41,187
497,92	39,696
498,12	37,152
498,32	39,889
498,52	39,749
498,72	35,855
498,92	37,890
499,12	40,297
499,32	35,590
499,52	37,752
499,72	38,745
499,92	39,143
500,12	41,394
500,32	41,526
500,52	38,560
500,72	44,436
500,91	43,586
501,11	38,148
501,31	34,811
501,51	38,139
501,71	40,865
501,91	41,195
502,11	38,968
502,31	42,613
502,51	41,707
502,71	37,926
502,91	36,058
503,11	40,703
503,31	40,676
503,51	35,544
503,71	37,043
503,91	42,021
504,11	39,410
504,31	37,535
504,51	38,087
504,71	41,878
504,91	37,098
505,10	38,613
505,30	35,670
505,50	37,956
505,70	40,072
505,90	37,554
506,10	32,817
506,30	37,634
506,50	40,925
506,70	40,775
506,90	35,978
507,10	36,999
507,30	38,593
507,50	40,291
507,70	38,001
507,89	40,425
508,09	41,089
508,29	35,925
508,49	35,921
508,69	37,671
508,89	34,682
509,09	35,788
509,29	37,738
509,49	39,363
509,69	42,708
509,89	37,641
510,09	36,233
510,28	37,224
510,48	37,326
510,68	36,206
510,88	34,765
511,08	35,704
511,28	35,843
511,48	35,628
511,68	33,013
511,88	29,860
512,07	36,181
512,27	38,989
512,47	35,413
512,67	35,519
512,87	32,914
513,07	37,150
513,27	35,628
513,47	35,629
513,67	31,587
513,86	37,772
514,06	36,680
514,26	33,450
514,46	40,488
514,66	35,347
514,86	35,347
515,06	41,538
515,26	39,580
515,45	35,885
515,65	30,591
515,85	33,826
516,05	36,342
516,25	34,005
516,45	36,857
516,65	33,345
516,84	38,190
517,04	35,904
517,24	33,370
517,44	36,223
517,64	39,974
517,84	36,114
518,04	34,999
518,23	38,092
518,43	40,723
518,63	31,082
518,83	33,141
519,03	33,460
519,23	36,582
519,42	33,380
519,62	31,938
519,82	33,027
520,02	34,699
520,22	32,410
520,42	32,415
520,61	36,556
520,81	36,818
521,01	34,197
521,21	30,623
521,41	32,324
521,61	36,617
521,80	30,658
522,00	31,199
522,20	35,879
522,40	35,348
522,60	32,867
522,79	31,165
522,99	35,585
523,19	31,685
523,39	31,276
523,59	31,944
523,78	34,954
523,98	29,539
524,18	33,933
524,38	29,789
524,58	34,182
524,77	35,297
524,97	33,478
525,17	32,002
525,37	32,692
525,57	39,066
525,76	32,725
525,96	33,404
526,16	31,651
526,36	29,757
526,56	31,354
526,75	29,249
526,95	37,193
527,15	34,136
527,35	35,000
527,55	30,391
527,74	33,810
527,94	29,994
528,14	31,732
528,34	30,793
528,53	33,017
528,73	34,433
528,93	31,304
529,13	30,222
529,32	31,604
529,52	33,061
529,72	30,845
529,92	29,042
530,12	30,073
530,31	30,082
530,51	30,674
530,71	33,195
530,91	34,345
531,10	28,802
531,30	30,695
531,50	27,826
531,70	32,345
531,89	29,255
532,09	30,524
532,29	29,675
532,49	30,475
532,68	30,684
532,88	28,769
533,08	29,399
533,28	30,629
533,47	31,116
533,67	29,376
533,87	29,336
534,06	36,344
534,26	32,084
534,46	27,778
534,66	29,310
534,85	32,907
535,05	25,675
535,25	28,017
535,45	27,971
535,64	31,100
535,84	28,958
536,04	28,345
536,23	29,319
536,43	31,781
536,63	26,755
536,83	28,411
537,02	28,854
537,22	27,835
537,42	29,048
537,61	25,533
537,81	27,920
538,01	29,395
538,20	28,363
538,40	25,890
538,60	26,375
538,80	25,752
538,99	27,231
539,19	27,213
539,39	25,294
539,58	25,973
539,78	22,827
539,98	24,775
540,17	22,032
540,37	24,724
540,57	21,751
540,76	23,829
540,96	20,136
541,16	25,090
541,36	20,774
541,55	20,397
541,75	18,686
541,95	21,709
542,14	21,656
542,34	17,996
542,54	18,004
542,73	20,697
542,93	22,228
543,13	19,600
543,32	19,365
543,52	21,004
543,72	17,248
543,91	20,790
544,11	19,817
544,31	18,665
544,50	21,815
544,70	19,456
544,89	20,589
545,09	22,681
545,29	21,138
545,48	20,358
545,68	21,930
545,88	21,996
546,07	19,724
546,27	19,873
546,47	22,070
546,66	21,448
546,86	22,663
547,06	20,397
547,25	21,775
547,45	25,846
547,64	24,575
547,84	26,951
548,04	26,023
548,23	25,427
548,43	27,182
548,63	26,195
548,82	25,177
549,02	24,424
549,21	24,077
549,41	26,130
549,61	23,578
549,80	26,318
550,00	27,186
550,20	22,697
550,39	26,874
550,59	25,763
550,78	25,854
550,98	24,806
551,18	26,561
551,37	25,509
551,57	24,486
551,76	25,806
551,96	25,131
552,16	26,568
552,35	27,721
552,55	24,507
552,74	26,361
552,94	26,853
553,14	26,076
553,33	27,170
553,53	26,266
553,72	25,693
553,92	26,510
554,12	24,030
554,31	26,261
554,51	27,379
554,70	25,344
554,90	25,487
555,09	27,655
555,29	28,729
555,49	26,856
555,68	28,291
555,88	24,296
556,07	26,725
556,27	30,317
556,46	26,657
556,66	24,551
556,86	27,573
557,05	26,186
557,25	23,129
557,44	25,973
557,64	24,485
557,83	26,030
558,03	27,407
558,22	26,857
558,42	26,902
558,62	28,081
558,81	26,264
559,01	26,569
559,20	26,960
559,40	26,276
559,59	27,323
559,79	24,119
559,98	28,193
560,18	27,397
560,37	26,161
560,57	31,352
560,76	27,610
560,96	27,181
561,16	27,121
561,35	26,264
561,55	28,241
561,74	28,633
561,94	27,468
562,13	24,881
562,33	27,865
562,52	28,767
562,72	26,955
562,91	25,638
563,11	26,940
563,30	30,583
563,50	23,900
563,69	24,362
563,89	24,904
564,08	28,880
564,28	26,808
564,47	26,879
564,67	25,807
564,86	26,051
565,06	26,784
565,25	27,247
565,45	26,065
565,64	30,866
565,84	24,984
566,03	25,485
566,23	25,981
566,42	28,870
566,62	27,543
566,81	26,228
567,01	27,628
567,20	27,821
567,40	24,396
567,59	26,599
567,79	30,282
567,98	29,925
568,18	27,644
568,37	28,813
568,57	28,852
568,76	28,587
568,96	25,491
569,15	26,623
569,35	29,644
569,54	29,746
569,73	29,460
569,93	25,269
570,12	27,064
570,32	28,642
570,51	26,697
570,71	28,358
570,90	29,471
571,10	26,820
571,29	25,571
571,49	27,456
571,68	28,672
571,87	29,216
572,07	26,661
572,26	24,001
572,46	28,028
572,65	28,490
572,85	24,639
573,04	27,945
573,24	27,283
573,43	31,051
573,62	28,553
573,82	27,476
574,01	27,319
574,21	27,900
574,40	26,620
574,60	24,779
574,79	31,717
574,98	27,595
575,18	28,787
575,37	26,357
575,57	28,709
575,76	28,116
575,96	28,034
576,15	27,526
576,34	27,328
576,54	29,855
576,73	29,814
576,93	27,831
577,12	28,708
577,31	29,426
577,51	26,687
577,70	27,655
577,90	29,244
578,09	28,365
578,28	28,188
578,48	28,454
578,67	30,311
578,87	30,537
579,06	27,447
579,25	29,794
579,45	29,963
579,64	27,284
579,84	28,550
580,03	28,301
580,22	32,567
580,42	27,389
580,61	28,687
580,81	28,169
581,00	30,624
581,19	31,267
581,39	28,981
581,58	28,195
581,77	29,546
581,97	30,685
582,16	28,873
582,35	28,276
582,55	29,654
582,74	32,523
582,94	30,469
583,13	27,789
583,32	31,017
583,52	31,293
583,71	30,872
583,90	30,714
584,10	32,208
584,29	31,250
584,48	29,144
584,68	30,886
584,87	31,139
585,06	30,563
585,26	28,748
585,45	30,158
585,65	33,040
585,84	30,098
586,03	31,263
586,23	29,673
586,42	30,906
586,61	33,544
586,81	31,943
587,00	31,975
587,19	31,430
587,39	34,969
587,58	31,851
587,77	32,180
587,97	31,186
588,16	31,018
588,35	32,536
588,54	33,852
588,74	33,546
588,93	36,651
589,12	32,942
589,32	32,349
589,51	32,235
589,70	31,702
589,90	32,341
590,09	32,917
590,28	37,730
590,48	33,294
590,67	34,258
590,86	34,573
591,06	33,620
591,25	36,909
591,44	35,142
591,63	33,836
591,83	34,600
592,02	36,478
592,21	33,981
592,41	33,154
592,60	36,159
592,79	34,080
592,98	34,710
593,18	34,963
593,37	36,449
593,56	37,686
593,76	36,581
593,95	33,185
594,14	36,842
594,33	38,876
594,53	36,697
594,72	35,085
594,91	39,350
595,10	39,075
595,30	36,232
595,49	36,362
595,68	38,367
595,88	38,980
596,07	38,079
596,26	38,377
596,45	38,106
596,65	33,303
596,84	37,456
597,03	37,617
597,22	41,927
597,42	40,440
597,61	40,565
597,80	38,169
597,99	37,913
598,19	41,343
598,38	39,163
598,57	38,170
598,76	40,300
598,95	40,637
599,15	40,998
599,34	40,587
599,53	40,239
599,72	39,934
599,92	40,678
600,11	39,853
600,30	40,254
600,49	41,085
600,69	38,535
600,88	39,691
601,07	39,972
601,26	39,612
601,45	41,790
601,65	39,835
601,84	40,421
602,03	42,142
602,22	42,535
602,42	42,170
602,61	41,250
602,80	43,912
602,99	41,587
603,18	40,527
603,38	43,527
603,57	41,284
603,76	40,753
603,95	41,381
604,14	43,250
604,34	41,593
604,53	41,810
604,72	41,971
604,91	43,777
605,10	42,306
605,29	44,573
605,49	41,286
605,68	43,081
605,87	43,821
606,06	45,256
606,25	40,869
606,45	43,676
606,64	42,606
606,83	43,402
607,02	41,358
607,21	42,737
607,40	42,927
607,60	40,193
607,79	40,854
607,98	40,876
608,17	41,122
608,36	39,650
608,55	41,234
608,75	41,896
608,94	41,783
609,13	36,281
609,32	35,494
609,51	37,382
609,70	36,524
609,89	38,698
610,09	34,855
610,28	39,475
610,47	36,624
610,66	35,660
610,85	35,229
611,04	37,662
611,23	36,214
611,43	34,220
611,62	36,331
611,81	37,112
612,00	37,618
612,19	36,562
612,38	36,271
612,57	38,810
612,77	39,898
612,96	38,653
613,15	38,555
613,34	40,671
613,53	40,479
613,72	40,643
613,91	40,605
614,10	41,176
614,29	43,493
614,49	39,732
614,68	41,693
614,87	43,502
615,06	46,516
615,25	40,826
615,44	44,101
615,63	44,224
615,82	42,254
616,01	43,251
616,21	43,541
616,40	44,713
616,59	46,619
616,78	43,953
616,97	45,013
617,16	45,522
617,35	46,055
617,54	44,855
617,73	46,777
617,92	45,867
618,11	46,807
618,31	43,453
618,50	45,818
618,69	46,139
618,88	45,869
619,07	42,244
619,26	43,492
619,45	44,536
619,64	44,803
619,83	43,814
620,02	44,513
620,21	47,542
620,40	48,112
620,59	44,517
620,78	43,045
620,97	46,315
621,17	47,036
621,36	45,190
621,55	44,839
621,74	46,243
621,93	45,203
622,12	44,247
622,31	43,690
622,50	46,453
622,69	48,137
622,88	45,929
623,07	48,198
623,26	47,451
623,45	47,827
623,64	45,394
623,83	45,317
624,02	47,546
624,21	46,883
624,40	47,157
624,59	45,166
624,78	47,559
624,97	49,214
625,16	43,216
625,35	44,051
625,54	44,799
625,73	47,012
625,92	46,506
626,12	47,750
626,31	48,300
626,50	47,169
626,69	46,966
626,88	43,877
627,07	47,008
627,26	46,366
627,45	46,413
627,64	47,526
627,83	48,124
628,02	44,885
628,21	46,625
628,40	46,079
628,59	49,449
628,78	46,547
628,97	44,937
629,16	43,903
629,35	45,408
629,54	49,328
629,73	44,568
629,92	46,814
630,10	45,534
630,29	46,026
630,48	46,382
630,67	45,208
630,86	48,288
631,05	47,251
631,24	47,816
631,43	45,148
631,62	47,721
631,81	45,538
632,00	47,072
632,19	44,948
632,38	48,722
632,57	45,250
632,76	46,178
632,95	49,188
633,14	49,748
633,33	48,290
633,52	49,631
633,71	49,068
633,90	45,216
634,09	46,693
634,28	48,990
634,47	46,386
634,66	47,239
634,85	48,121
635,04	49,330
635,22	47,901
635,41	47,274
635,60	50,085
635,79	47,947
635,98	46,769
636,17	49,763
636,36	49,747
636,55	47,022
636,74	46,300
636,93	48,769
637,12	50,261
637,31	46,919
637,50	48,325
637,69	50,470
637,87	49,079
638,06	48,560
638,25	46,892
638,44	48,686
638,63	45,619
638,82	48,076
639,01	48,000
639,20	48,295
639,39	51,131
639,58	46,375
639,77	46,990
639,95	47,370
640,14	49,597
640,33	47,317
640,52	45,922
640,71	51,507
640,90	49,238
641,09	50,537
641,28	47,353
641,47	49,833
641,66	49,536
641,84	48,603
642,03	45,703
642,22	48,943
642,41	50,494
642,60	49,232
642,79	48,264
642,98	49,385
643,17	47,048
643,35	47,322
643,54	48,016
643,73	48,892
643,92	49,505
644,11	48,501
644,30	46,813
644,49	50,926
644,67	48,728
644,86	46,087
645,05	49,407
645,24	49,177
645,43	48,451
645,62	48,217
645,81	47,019
645,99	50,169
646,18	50,046
646,37	48,741
646,56	46,280
646,75	51,087
646,94	50,616
647,13	48,796
647,31	48,403
647,50	47,212
647,69	51,222
647,88	48,605
648,07	49,248
648,26	54,165
648,44	50,659
648,63	48,125
648,82	48,175
649,01	53,100
649,20	47,043
649,38	48,151
649,57	49,768
649,76	48,918
649,95	50,627
650,14	45,914
650,33	47,060
650,51	47,645
650,70	48,590
650,89	49,532
651,08	47,889
651,27	50,787
651,45	47,812
651,64	46,878
651,83	50,591
652,02	48,772
652,21	49,274
652,39	51,961
652,58	49,337
652,77	51,268
652,96	49,642
653,15	50,095
653,33	50,564
653,52	49,609
653,71	52,435
653,90	50,892
654,09	48,505
654,27	50,306
654,46	52,287
654,65	51,176
654,84	50,584
655,02	52,008
655,21	51,634
655,40	51,491
655,59	51,080
655,77	51,257
655,96	51,620
656,15	51,095
656,34	51,707
656,53	52,049
656,71	50,070
656,90	50,904
657,09	53,188
657,28	52,634
657,46	50,218
657,65	49,983
657,84	49,769
658,03	51,111
658,21	49,247
658,40	49,859
658,59	50,518
658,78	50,909
658,96	47,506
659,15	47,765
659,34	50,647
659,52	50,108
659,71	50,631
659,90	48,804
660,09	50,108
660,27	50,173
660,46	50,990
660,65	48,298
660,84	48,131
661,02	50,238
661,21	50,003
661,40	50,238
661,58	49,954
661,77	50,918
661,96	47,356
662,15	49,408
662,33	48,597
662,52	48,932
662,71	51,610
662,89	48,658
663,08	47,000
663,27	49,786
663,45	49,462
663,64	48,607
663,83	47,284
664,02	48,775
664,20	50,152
664,39	47,627
664,58	49,515
664,76	49,364
664,95	49,570
665,14	48,809
665,32	47,688
665,51	48,911
665,70	51,487
665,88	49,955
666,07	47,970
666,26	49,312
666,44	53,170
666,63	49,099
666,82	48,197
667,00	50,114
667,19	47,604
667,38	49,085
667,56	50,372
667,75	49,897
667,94	49,920
668,12	47,505
668,31	49,812
668,50	48,811
668,68	51,161
668,87	49,646
669,06	49,408
669,24	50,289
669,43	50,296
669,62	46,463
669,80	48,189
669,99	47,860
670,18	50,002
670,36	47,598
670,55	49,686
670,74	50,249
670,92	46,175
671,11	49,568
671,29	47,716
671,48	50,066
671,67	50,070
671,85	48,966
672,04	49,313
672,23	48,509
672,41	47,955
672,60	48,300
672,78	49,233
672,97	49,099
673,16	49,325
673,34	48,908
673,53	46,934
673,71	51,050
673,90	50,903
674,09	49,747
674,27	48,021
674,46	47,773
674,64	49,249
674,83	50,515
675,02	45,958
675,20	49,161
675,39	49,085
675,57	49,496
675,76	48,833
675,95	51,678
676,13	49,839
676,32	50,036
676,50	51,224
676,69	46,649
676,88	49,817
677,06	47,405
677,25	48,568
677,43	53,463
677,62	51,669
677,80	49,080
677,99	49,107
678,18	50,137
678,36	52,156
678,55	46,650
678,73	47,875
678,92	50,385
679,10	50,952
679,29	49,811
679,48	47,233
679,66	48,604
679,85	49,553
680,03	48,556
680,22	47,381
680,40	47,814
680,59	48,742
680,77	48,193
680,96	49,652
681,15	50,252
681,33	51,640
681,52	49,038
681,70	48,158
681,89	51,778
682,07	49,243
682,26	48,900
682,44	49,921
682,63	51,242
682,81	48,591
683,00	50,187
683,18	46,393
683,37	50,736
683,55	48,585
683,74	49,677
683,92	55,296
684,11	51,091
684,29	50,514
684,48	46,818
684,67	48,238
684,85	49,625
685,04	50,218
685,22	48,286
685,41	48,321
685,59	49,297
685,78	48,001
685,96	47,752
686,15	48,713
686,33	48,122
686,52	48,372
686,70	49,629
686,89	47,916
687,07	51,196
687,26	50,542
687,44	49,777
687,62	49,005
687,81	51,560
687,99	50,077
688,18	47,890
688,36	50,369
688,55	51,327
688,73	50,236
688,92	46,390
689,10	48,545
689,29	50,095
689,47	52,014
689,66	48,196
689,84	50,155
690,03	52,898
690,21	49,174
690,40	50,567
690,58	47,510
690,76	48,687
690,95	50,321
691,13	49,145
691,32	50,651
691,50	50,258
691,69	52,331
691,87	49,936
692,06	49,189
692,24	46,625
692,43	50,056
692,61	47,187
692,79	47,966
692,98	46,824
693,16	51,194
693,35	46,915
693,53	50,427
693,72	50,920
693,90	51,143
694,08	47,543
694,27	49,676
694,45	53,438
694,64	51,984
694,82	49,377
695,01	48,084
695,19	50,132
695,37	47,782
695,56	48,809
695,74	49,525
695,93	50,283
696,11	48,938
696,29	50,830
696,48	49,793
696,66	52,402
696,85	49,127
697,03	49,735
697,21	51,343
697,40	50,651
697,58	50,308
697,77	48,688
697,95	50,624
698,13	52,426
698,32	49,705
698,50	48,957
698,69	49,431
698,87	51,741
699,05	49,316
699,24	46,406
699,42	49,467
699,60	47,322
699,79	49,175
699,97	48,681
700,16	45,603
700,34	50,422
700,52	47,569
700,71	49,996
700,89	48,519
701,07	49,213
701,26	51,589
701,44	49,517
701,63	48,711
701,81	51,610
701,99	51,982
702,18	49,085
702,36	46,881
702,54	49,432
702,73	49,472
702,91	48,718
703,09	49,002
703,28	49,117
703,46	50,866
703,64	50,016
703,83	50,197
704,01	49,954
704,19	48,287
704,38	47,052
704,56	47,880
704,74	49,295
704,93	47,359
705,11	49,975
705,29	49,067
705,48	55,991
705,66	49,833
705,84	49,006
706,03	47,037
706,21	49,449
706,39	48,336
706,58	47,972
706,76	47,289
706,94	50,750
707,12	49,976
707,31	49,269
707,49	48,580
707,67	50,448
707,86	52,699
708,04	48,183
708,22	46,028
708,41	50,727
708,59	50,516
708,77	47,792
708,95	50,553
709,14	52,642
709,32	50,450
709,50	47,287
709,69	47,671
709,87	50,245
710,05	49,542
710,23	48,367
710,42	46,831
710,60	50,871
710,78	50,761
710,97	48,763
711,15	48,451
711,33	50,399
711,51	47,956
711,70	48,082
711,88	46,570
712,06	52,198
712,24	49,765
712,43	49,381
712,61	48,822
712,79	49,422
712,97	49,004
713,16	48,628
713,34	48,025
713,52	51,634
713,70	51,070
713,89	48,020
714,07	48,808
714,25	49,276
714,43	52,807
714,62	49,595
714,80	47,988
714,98	45,276
715,16	49,494
715,35	48,089
715,53	47,902
715,71	50,621
715,89	50,381
716,07	49,769
716,26	52,745
716,44	51,611
716,62	48,912
716,80	49,808
716,99	48,993
717,17	51,737
717,35	49,100
717,53	48,540
717,71	48,965
717,90	52,840
718,08	49,145
718,26	45,938
718,44	49,866
718,62	50,667
718,81	50,953
718,99	49,773
719,17	49,561
719,35	51,113
719,53	50,317
719,72	47,072
719,90	50,110
720,08	49,503
720,26	51,596
720,44	48,598
720,62	48,025
720,81	51,078
720,99	51,786
721,17	50,809
721,35	49,545
721,53	47,702
721,72	51,728
721,90	50,702
722,08	48,789
722,26	50,378
722,44	50,504
722,62	48,875
722,81	47,091
722,99	49,130
723,17	50,194
723,35	47,991
723,53	49,204
723,71	51,903
723,89	53,142
724,08	46,143
724,26	48,897
724,44	50,474
724,62	53,078
724,80	48,100
724,98	48,309
725,16	52,656
725,35	48,689
725,53	49,386
725,71	47,289
725,89	50,068
726,07	52,051
726,25	51,614
726,43	46,676
726,61	50,264
726,80	51,113
726,98	48,150
727,16	49,354
727,34	50,890
727,52	48,853
727,70	47,336
727,88	48,090
728,06	48,260
728,25	47,836
728,43	49,806
728,61	48,859
728,79	47,575
728,97	49,730
729,15	49,802
729,33	48,325
729,51	51,239
729,69	51,168
729,87	50,135
730,06	50,489
730,24	48,318
730,42	51,040
730,60	48,281
730,78	48,739
730,96	49,575
731,14	49,741
731,32	49,979
731,50	47,865
731,68	50,834
731,86	50,277
732,04	50,757
732,22	47,888
732,41	53,025
732,59	49,864
732,77	50,533
732,95	53,795
733,13	50,451
733,31	48,695
733,49	47,557
733,67	49,987
733,85	50,405
734,03	50,198
734,21	50,341
734,39	50,693
734,57	52,228
734,75	53,356
734,93	49,116
735,11	49,357
735,29	49,298
735,47	51,428
735,65	49,945
735,84	47,934
736,02	50,447
736,20	52,688
736,38	48,385
736,56	49,402
736,74	49,880
736,92	51,274
737,10	48,533
737,28	49,663
737,46	50,419
737,64	47,395
737,82	47,227
738,00	49,671
738,18	52,602
738,36	52,117
738,54	48,044
738,72	44,892
738,90	51,411
739,08	50,269
739,26	46,591
739,44	51,114
739,62	51,278
739,80	51,588
739,98	50,088
740,16	49,236
740,34	48,083
740,52	51,369
740,70	49,203
740,88	49,928
741,06	48,604
741,24	50,088
741,42	52,142
741,60	48,138
741,78	52,424
741,96	49,857
742,14	47,130
742,32	46,062
742,50	49,054
742,68	51,793
742,86	49,524
743,04	48,059
743,21	48,876
743,39	50,600
743,57	46,870
743,75	48,204
743,93	47,239
744,11	46,159
744,29	47,009
744,47	48,729
744,65	50,121
744,83	48,968
745,01	48,444
745,19	49,313
745,37	52,164
745,55	48,857
745,73	51,416
745,91	47,917
746,09	46,179
746,27	49,637
746,45	46,910
746,62	48,489
746,80	49,387
746,98	49,695
747,16	48,613
747,34	48,562
747,52	49,938
747,70	49,021
747,88	49,739
748,06	50,804
748,24	51,119
748,42	51,257
748,60	48,960
748,78	48,754
748,95	53,392
749,13	51,630
749,31	49,768
749,49	49,085
749,67	50,558
749,85	50,429
750,03	48,356
750,21	49,703
750,39	50,262
750,57	50,229
750,74	49,625
750,92	48,043
751,10	50,299
751,28	48,753
751,46	49,723
751,64	50,422
751,82	53,197
752,00	52,286
752,17	51,159
752,35	47,581
752,53	50,746
752,71	50,539
752,89	48,698
753,07	48,116
753,25	50,262
753,43	48,571
753,60	49,546
753,78	48,746
753,96	52,727
754,14	50,473
754,32	49,763
754,50	49,318
754,68	50,562
754,85	50,461
755,03	50,687
755,21	48,380
755,39	55,087
755,57	51,095
755,75	49,406
755,92	48,842
756,10	52,027
756,28	50,707
756,46	47,974
756,64	48,191
756,82	50,558
756,99	50,725
757,17	49,315
757,35	48,874
757,53	52,665
757,71	53,668
757,89	48,688
758,06	48,665
758,24	50,683
758,42	50,869
758,60	48,015
758,78	48,878
758,95	52,932
759,13	51,152
759,31	49,315
759,49	48,430
759,67	50,912
759,84	48,860
760,02	50,667
760,20	49,343
760,38	49,209
760,56	49,226
760,73	49,795
760,91	49,624
761,09	51,034
761,27	49,456
761,45	50,225
761,62	46,390
761,80	49,614
761,98	51,900
762,16	48,577
762,33	47,402
762,51	53,072
762,69	50,785
762,87	49,805
763,05	48,794
763,22	48,219
763,40	49,366
763,58	48,886
763,76	48,009
763,93	51,773
764,11	52,383
764,29	48,506
764,47	49,758
764,64	53,570
764,82	53,291
765,00	48,584
765,18	47,216
765,35	50,422
765,53	49,665
765,71	50,185
765,89	48,856
766,06	49,300
766,24	50,767
766,42	48,713
766,60	51,595
766,77	50,259
766,95	47,983
767,13	49,941
767,30	49,623
767,48	50,596
767,66	49,780
767,84	49,058
768,01	51,363
768,19	50,048
768,37	49,903
768,54	48,989
768,72	51,563
768,90	51,524
769,08	49,824
769,25	51,326
769,43	47,402
769,61	46,545
769,78	51,763
769,96	51,123
770,14	50,697
770,31	52,051
770,49	53,419
770,67	50,175
770,85	48,993
771,02	51,344
771,20	50,608
771,38	51,770
771,55	47,883
771,73	50,207
771,91	50,154
772,08	52,585
772,26	49,790
772,44	50,929
772,61	49,549
772,79	50,258
772,97	50,098
773,14	48,497
773,32	52,739
773,50	51,095
773,67	51,130
773,85	52,383
774,03	53,187
774,20	51,256
774,38	48,979
774,56	51,861
774,73	52,044
774,91	49,875
775,09	50,384
775,26	51,379
775,44	51,594
775,61	50,386
775,79	49,835
775,97	51,143
776,14	50,910
776,32	48,350
776,50	49,392
776,67	48,652
776,85	50,243
777,03	47,127
777,20	48,171
777,38	52,050
777,55	51,892
777,73	46,916
777,91	48,936
778,08	51,314
778,26	50,782
778,43	51,743
778,61	46,684
778,79	50,706
778,96	49,109
779,14	49,688
779,32	49,809
779,49	49,265
779,67	55,336
779,84	50,665
780,02	51,575
780,20	48,006
780,37	51,278
780,55	45,273
780,72	52,335
780,90	50,382
781,07	53,175
781,25	51,847
781,43	53,234
781,60	50,358
781,78	51,083
781,95	49,192
782,13	50,181
782,30	53,792
782,48	52,645
782,66	49,291
782,83	46,841
783,01	57,412
783,18	53,753
783,36	52,248
783,53	51,713
783,71	50,218
783,89	52,569
784,06	50,380
784,24	51,160
784,41	53,425
784,59	50,149
784,76	54,611
784,94	48,417
785,11	48,601
785,29	53,071
785,46	50,027
785,64	47,965
785,82	52,435
785,99	52,606
786,17	50,352
786,34	49,072
786,52	53,229
786,69	55,016
786,87	49,002
787,04	48,490
787,22	48,765
787,39	52,130
787,57	51,431
787,74	51,153
787,92	53,833
788,09	53,066
788,27	48,057
788,44	49,593
788,62	53,526
788,79	51,114
788,97	49,896
789,14	50,075
789,32	49,672
789,49	52,369
789,67	48,620
789,84	52,841
790,02	54,915
790,19	52,991
790,37	52,377
790,54	53,023
790,72	56,234
790,89	56,230
791,07	52,517
791,24	48,066
791,42	54,190
791,59	53,183
791,77	53,162
791,94	47,575
792,12	50,940
792,29	50,238
792,47	51,084
792,64	55,720
792,81	55,643
792,99	52,118
793,16	49,882
793,34	52,594
793,51	55,361
793,69	52,477
793,86	52,574
794,04	50,158
794,21	54,442
794,39	49,107
794,56	52,690
794,73	51,718
794,91	53,060
795,08	52,326
795,26	53,280
795,43	50,018
795,61	54,562
795,78	53,247
795,95	52,163
796,13	53,870
796,30	55,143
796,48	51,714
796,65	50,955
796,83	50,965
797,00	55,605
797,17	50,993
797,35	52,691
797,52	52,741
797,70	54,588
797,87	53,051
798,04	45,152
798,22	50,875
798,39	54,857
798,57	52,813
798,74	51,588
798,91	50,256
799,09	51,277
799,26	52,670
799,44	53,980
799,61	48,116
799,78	50,354
799,96	53,081
800,13	51,691
800,31	51,088
800,48	56,041
800,65	55,429
800,83	49,576
801,00	50,848
801,17	52,148
801,35	56,697
801,52	51,975
801,70	52,306
801,87	49,481
802,04	54,586
802,22	50,473
802,39	53,450
802,56	58,406
802,74	52,205
802,91	53,782
803,08	52,776
803,26	54,858
803,43	57,802
803,61	51,686
803,78	53,147
803,95	54,036
804,13	59,317
804,30	49,461
804,47	54,414
804,65	54,209
804,82	54,068
804,99	55,373
805,17	51,516
805,34	58,329
805,51	56,699
805,69	53,978
805,86	52,415
806,03	58,500
806,21	56,743
806,38	52,524
806,55	53,584
806,72	56,969
806,90	60,561
807,07	52,625
807,24	51,722
807,42	48,692
807,59	54,015
807,76	47,664
807,94	53,417
808,11	52,823
808,28	57,557
808,45	51,152
808,63	50,879
808,80	56,338
808,97	51,713
809,15	51,971
809,32	52,825
809,49	52,406
809,67	51,637
809,84	54,277
810,01	56,635
810,18	62,008
810,36	56,715
810,53	52,405
810,70	53,867
810,87	55,629
811,05	51,888
811,22	57,113
811,39	51,139
811,57	61,876
811,74	56,191
811,91	50,907
812,08	51,661
812,26	56,951
812,43	54,183
812,60	54,213
812,77	54,841
812,95	57,211
813,12	53,155
813,29	55,589
813,46	55,107
813,64	56,776
813,81	57,505
813,98	50,312
814,15	57,979
814,32	61,940
814,50	58,592
814,67	54,345
814,84	54,535
815,01	56,561
815,19	47,724
815,36	44,876
815,53	54,300
815,70	57,873
815,87	57,379
816,05	48,896
816,22	54,386
816,39	58,458
816,56	61,393
816,74	53,876
816,91	52,550
817,08	61,017
817,25	59,126
817,42	54,824
817,60	56,198
817,77	53,901
817,94	54,505
818,11	55,440
818,28	55,550
818,45	58,740
818,63	58,968
818,80	55,852
818,97	54,625
819,14	65,173
819,31	62,825
819,49	55,573
819,66	51,182
819,83	59,965
820,00	56,074
820,17	48,709
820,34	55,705
820,52	59,382
820,69	60,747
820,86	56,662
821,03	58,357
821,20	62,153
821,37	60,646
821,55	49,146
821,72	52,355
821,89	56,276
822,06	59,365
822,23	52,279
822,40	54,706
822,57	55,136
822,75	67,032
822,92	48,297
823,09	57,805
823,26	60,753
823,43	65,550
823,60	53,380
823,77	56,590
823,94	64,758
824,12	62,389
824,29	53,722
824,46	53,496
824,63	65,703
824,80	62,565
824,97	54,795
825,14	53,045
825,31	64,114
825,49	58,557
825,66	52,028
825,83	49,985
826,00	62,811
826,17	67,160
826,34	54,807
826,51	50,860
826,68	55,091
826,85	63,084
827,02	52,866
827,20	53,697
827,37	56,814
827,54	60,041
827,71	55,794
827,88	59,215
828,05	61,533
828,22	60,000
828,39	60,814
828,56	59,543
828,73	62,335
828,90	61,326
829,07	52,817
829,25	61,861
829,42	62,871
829,59	52,802
829,76	57,573
829,93	50,897
830,10	55,336
830,27	56,788
830,44	61,537
830,61	51,858
830,78	68,252
830,95	58,261
831,12	53,844
831,29	52,615
831,46	62,343
831,63	58,252
831,80	53,980
831,97	53,987
832,14	61,476
832,31	72,005
832,48	46,787
832,65	60,532
832,83	66,942
833,00	61,894
833,17	53,693
833,34	61,342
833,51	63,052
833,68	71,041
833,85	58,256
834,02	52,076
834,19	65,365
834,36	68,352
834,53	50,767
834,70	52,907
834,87	69,310
835,04	62,504
835,21	53,539
835,38	56,451
835,55	55,064
835,72	66,990
835,89	61,937
836,06	59,328
836,23	78,509
836,40	50,078
836,57	56,440
836,74	62,575
836,91	68,290
837,08	64,036
837,25	59,889
837,42	50,213
837,59	63,118
837,76	60,381
837,93	56,465
838,09	52,542
838,26	65,814
838,43	67,585
838,60	64,082
838,77	56,287
838,94	58,170
839,11	56,608
839,28	55,694
839,45	55,049
839,62	54,407
839,79	50,677
839,96	59,853
840,13	61,101
840,30	54,394
840,47	48,945
840,64	51,047
840,81	63,367
840,98	63,840
841,15	77,314
841,32	50,382
841,48	64,503
841,65	68,141
841,82	55,531
841,99	61,804
842,16	60,547
842,33	66,707
842,50	68,954
842,67	53,404
842,84	57,467
843,01	58,886
843,18	60,060
843,35	54,090
843,52	56,105
843,68	62,918
843,85	71,588
844,02	49,032
844,19	49,129
844,36	70,274
844,53	66,325
844,70	54,734
844,87	70,333
845,04	64,482
845,21	48,903
845,37	70,557
845,54	63,785
845,71	59,004
845,88	84,902
846,05	57,369
846,22	52,448
846,39	63,711
846,56	72,151
846,72	48,057
846,89	58,054
847,06	78,177
847,23	76,555
847,40	56,350
847,57	49,839
847,74	60,574
847,90	76,156
848,07	64,437
848,24	69,073
848,41	69,339
848,58	77,830
848,75	56,931
848,92	61,587
849,08	58,032
849,25	65,037
849,42	47,577
849,59	58,679
849,76	58,639
849,93	60,254
850,09	66,522
850,26	53,150
850,43	77,015
850,60	62,038
850,77	52,898
850,94	64,403
851,10	68,795
851,27	63,091
851,44	50,986
851,61	58,512
851,78	69,075
851,95	78,853
852,11	62,806
852,28	54,709
852,45	72,324
852,62	72,001
852,79	66,919
852,95	56,486
853,12	71,642
853,29	57,668
853,46	56,677
853,63	67,949
853,79	58,336
853,96	59,999
854,13	70,485
854,30	58,004
854,46	89,678
854,63	65,981
854,80	61,203
854,97	52,975
855,14	83,193
855,30	71,624
855,47	59,653
855,64	69,726
855,81	67,084
855,97	81,872
856,14	70,708
856,31	60,387
856,48	83,170
856,65	90,778
856,81	57,182
856,98	53,663
857,15	55,994
857,32	74,419
857,48	60,208
857,65	68,344
857,82	78,048
857,99	75,087
858,15	61,561
858,32	68,236
858,49	79,620
858,65	87,387
858,82	68,965
858,99	61,820
859,16	83,586
859,32	71,874
859,49	67,642
859,66	69,670
859,83	71,491
859,99	65,640
860,16	70,852
860,33	48,938
860,49	87,843
860,66	90,357
860,83	61,580
861,00	52,992
861,16	83,491
861,33	80,029
861,50	55,937
861,66	73,784
861,83	95,837
862,00	59,354
862,16	74,191
862,33	53,290
862,50	111,588
862,67	85,341
862,83	69,691
863,00	84,535
863,17	104,878
863,33	72,068
863,50	32,622
863,67	56,994
863,83	89,195
864,00	86,155
864,17	46,048
864,33	64,200
864,50	67,574
864,67	72,830
864,83	61,006
865,00	62,821
865,17	73,345
865,33	82,323
865,50	57,176
865,67	51,336
865,83	86,430
866,00	115,031
866,17	56,791
866,33	79,356
866,50	92,160
866,66	90,357
866,83	81,969
867,00	71,339
867,16	98,724
867,33	120,885
867,50	62,830
867,66	50,879
867,83	116,088
868,00	96,113
868,16	57,990
868,33	59,633
868,49	79,914
868,66	79,965
868,83	57,098
868,99	73,262
869,16	102,170
869,32	122,695
869,49	75,113
869,66	43,630
869,82	97,245
869,99	94,083
870,15	58,219
870,32	84,376
870,49	107,024
870,65	144,855
870,82	77,240
870,98	90,851
871,15	133,747
871,32	81,216
871,48	49,324
871,65	58,654
871,81	90,208
871,98	48,788
872,15	58,760
872,31	44,948
872,48	182,058
872,64	74,596
872,81	51,558
872,97	85,770
873,14	94,357
873,31	83,699
873,47	96,394
873,64	92,698
873,80	125,849
873,97	136,501
874,13	61,989
874,30	73,174
874,46	136,795
874,63	84,754
874,80	56,683
874,96	61,215
875,13	171,100
875,29	82,252
875,46	122,921
875,62	61,811
875,79	113,960
875,95	105,423
876,12	70,528
876,28	24,170
876,45	143,240
876,61	64,840
876,78	70,735
876,94	69,381
877,11	99,717
877,27	113,797
877,44	85,760
877,60	65,092
877,77	134,521
877,94	141,952
878,10	67,511
878,27	98,412
878,43	138,306
878,60	97,050
878,76	63,689
878,93	86,604
879,09	129,006
879,26	129,730
879,42	113,593
879,58	109,117
879,75	163,996
879,91	132,152
880,08	4,884
880,24	80,005
880,41	87,884
880,57	118,430
880,74	75,272
880,90	111,811
881,07	106,123
881,23	182,049
881,40	94,567
881,56	50,250
881,73	145,146
881,89	162,068
882,06	36,057
882,22	156,578
882,38	182,131
882,55	192,179
882,71	94,116
882,88	109,037
883,04	255,972
883,21	236,515
883,37	79,523
883,54	116,399
883,70	259,124
883,86	166,658
884,03	87,690
884,19	51,571
884,36	182,972
884,52	267,039
884,69	96,824
884,85	82,777
885,01	330,640
885,18	167,182
885,34	201,827
885,51	54,079
885,67	119,660
>>>>> Data<<<<< Espectral Procesado Extremo
