Fichero De Datos De SpectraSuite
++++++++++++++++++++++++++++++++++++
Fecha: Wed Apr 22 13:21:37 CEST 2009
Usuario: evoflor
Presente Oscuro Del Espectro: Sí
La Referencia de Presente Del Espectro De: Sí
Muestreados de los componentes de Número de espectros: 1
Espectrómetros: USB4F02353
Tiempo de integración (usec): 500000 (USB4F02353)
Promedio de Espectros Hechos un: 5 (USB4F02353)
El Alisar Del Furgón: 0 (USB4F02353)
Párrafo de de Corregir del la del del de Eléctrica del obscuridad: Sí (USB4F02353)
Estrobo/Lámpara Permitido: No (USB4F02353)
Correct for Detector Non-linearity: No (USB4F02353)
Párrafo de de Corregir del la del del de Externa del luz: No (USB4F02353)
Procesado del espectro de Número de pixeles en: 3648
>>>>> Comienza Data<<<<< Espectral Procesado Del EL
177,79	357,429
178,00	357,429
178,22	357,429
178,44	2200,440
178,66	-110,981
178,88	614,137
179,09	-258,553
179,31	259,061
179,53	753,746
179,75	136,928
179,96	710,000
180,18	-234,031
180,40	268,025
180,62	313,952
180,83	-158,017
181,05	-1926,341
181,27	-187660,000
181,49	-51,870
181,70	465,615
181,92	820,102
182,14	519,157
182,36	-26,692
182,58	562,400
182,79	1323,929
183,01	-119,673
183,23	148,902
183,45	-250,646
183,66	105,487
183,88	405,059
184,10	-3084,727
184,32	277,376
184,53	288,092
184,75	-121,574
184,97	35,560
185,18	-207,256
185,40	-486,827
185,62	209,857
185,84	-26,507
186,05	284,038
186,27	-161,480
186,49	5556,154
186,71	-116,598
186,92	114,825
187,14	-223,718
187,36	172,780
187,58	141,989
187,79	-8,906
188,01	310,912
188,23	-175,170
188,45	90,418
188,66	178,839
188,88	-4001,091
189,10	-1561,600
189,31	-243,447
189,53	48,467
189,75	461,273
189,97	320,231
190,18	-206,609
190,40	500,353
190,62	-388,816
190,83	-389,611
191,05	88,013
191,27	250,743
191,49	435,545
191,70	-573,365
191,92	-545,424
192,14	-137,886
192,35	679,204
192,57	3664,571
192,79	70,364
193,01	260,890
193,22	5,768
193,44	-175,870
193,66	154,396
193,87	49,165
194,09	-65,136
194,31	268,947
194,53	443,776
194,74	61,710
194,96	98,414
195,18	103,004
195,39	-214,934
195,61	-110,239
195,83	-310,130
196,04	122,543
196,26	-318,894
196,48	-81,372
196,70	342,664
196,91	77,283
197,13	244,962
197,35	-53,862
197,56	717,523
197,78	2656,418
198,00	758,462
198,21	609,515
198,43	-1274,186
198,65	124,043
198,86	623,237
199,08	520,852
199,30	201,336
199,51	-400,195
199,73	249,729
199,95	212,772
200,16	701,000
200,38	380,992
200,60	87,960
200,81	251,520
201,03	177,337
201,25	-1273,600
201,46	219,083
201,68	53,874
201,90	3283,182
202,11	-578,855
202,33	54,147
202,55	1097,000
202,76	-186,911
202,98	290,105
203,20	-434,904
203,41	-608,737
203,63	211,404
203,85	-166960,000
204,06	153,503
204,28	-220,145
204,50	151,473
204,71	374,488
204,93	-853,120
205,15	180,301
205,36	-233,193
205,58	270,365
205,80	-269,696
206,01	134,092
206,23	144,537
206,45	281,745
206,66	147,908
206,88	89,983
207,10	174,909
207,31	410,675
207,53	127,314
207,75	56,531
207,96	1360,149
208,18	-257,270
208,39	157,408
208,61	4744,571
208,83	-504,339
209,04	347,880
209,26	-76,774
209,48	301,511
209,69	378,161
209,91	792,095
210,13	66,390
210,34	168,910
210,56	243,678
210,77	-1952,441
210,99	143,456
211,21	8709,412
211,42	-191,182
211,64	-30,641
211,86	234,959
212,07	245,173
212,29	294,908
212,50	138,383
212,72	327,154
212,94	58,722
213,15	139,649
213,37	110,026
213,58	-262,439
213,80	-5448,571
214,02	14321,176
214,23	293,175
214,45	234,623
214,67	-1147,073
214,88	-264,295
215,10	-431,796
215,31	-91,354
215,53	31,727
215,75	252,800
215,96	2060,000
216,18	44,507
216,39	289,791
216,61	504,061
216,83	484,196
217,04	1340,000
217,26	190,903
217,47	114,128
217,69	371,924
217,91	47,526
218,12	-139960,000
218,34	192,500
218,55	333,050
218,77	95,904
218,99	155,571
219,20	-259,305
219,42	379,360
219,63	-10,576
219,85	-106,741
220,06	77,923
220,28	270,179
220,50	142,807
220,71	88,696
220,93	4491,698
221,14	-1822,600
221,36	-109,293
221,58	-58,109
221,79	439,128
222,01	1765,172
222,22	908,947
222,44	-338,652
222,65	156,004
222,87	519,301
223,09	168,757
223,30	79,374
223,52	121,620
223,73	183,799
223,95	-124,845
224,16	160,536
224,38	357,251
224,60	86,439
224,81	-44,872
225,03	156,123
225,24	146,940
225,46	48,605
225,67	-10,140
225,89	31,230
226,10	605,904
226,32	241,280
226,54	38,643
226,75	45,940
226,97	190,269
227,18	256,024
227,40	39,693
227,61	53,354
227,83	28,638
228,04	185,610
228,26	99,734
228,47	9,141
228,69	191,004
228,91	205,124
229,12	134,620
229,34	45,293
229,55	78,139
229,77	19,287
229,98	-7,037
230,20	29,623
230,41	-34,838
230,63	137,718
230,84	50,489
231,06	23,911
231,27	32,922
231,49	47,105
231,71	30,016
231,92	59,064
232,14	55,366
232,35	58,293
232,57	44,138
232,78	8,215
233,00	27,632
233,21	75,661
233,43	7,253
233,64	24,074
233,86	59,889
234,07	60,861
234,29	21,011
234,50	39,616
234,72	45,258
234,93	20,644
235,15	28,540
235,36	31,216
235,58	38,073
235,79	39,401
236,01	20,269
236,22	12,863
236,44	50,435
236,65	30,581
236,87	35,796
237,08	7,789
237,30	20,448
237,51	38,085
237,73	-3,619
237,94	17,027
238,16	33,941
238,37	18,999
238,59	15,394
238,80	14,736
239,02	6,485
239,23	20,138
239,45	3,237
239,66	28,216
239,88	46,283
240,09	20,919
240,31	2,296
240,52	8,479
240,74	12,705
240,95	17,524
241,17	15,887
241,38	6,897
241,60	10,581
241,81	30,083
242,03	6,257
242,24	27,499
242,46	25,096
242,67	11,501
242,89	20,408
243,10	15,278
243,32	21,461
243,53	24,792
243,75	4,226
243,96	15,121
244,18	14,740
244,39	14,492
244,60	14,393
244,82	8,437
245,03	25,020
245,25	12,655
245,46	34,055
245,68	5,424
245,89	20,080
246,11	19,445
246,32	16,669
246,54	8,372
246,75	13,036
246,97	19,388
247,18	21,569
247,39	6,855
247,61	14,827
247,82	17,223
248,04	8,833
248,25	9,951
248,47	17,830
248,68	11,644
248,90	3,536
249,11	4,621
249,33	25,868
249,54	14,204
249,75	14,468
249,97	9,534
250,18	17,451
250,40	17,381
250,61	-1,513
250,83	5,727
251,04	6,889
251,25	14,042
251,47	4,453
251,68	11,473
251,90	8,025
252,11	11,786
252,33	2,963
252,54	9,009
252,76	7,213
252,97	4,786
253,18	4,447
253,40	5,733
253,61	5,298
253,83	10,465
254,04	12,309
254,25	7,712
254,47	6,174
254,68	6,245
254,90	7,746
255,11	9,809
255,33	7,193
255,54	2,605
255,75	8,301
255,97	7,862
256,18	5,879
256,40	9,504
256,61	8,992
256,82	-0,847
257,04	11,759
257,25	6,788
257,47	4,713
257,68	5,194
257,89	13,484
258,11	10,464
258,32	7,965
258,54	6,641
258,75	14,049
258,96	13,108
259,18	7,558
259,39	7,067
259,61	13,675
259,82	8,946
260,03	7,987
260,25	6,779
260,46	10,647
260,68	5,318
260,89	4,021
261,10	2,531
261,32	7,319
261,53	5,797
261,75	11,727
261,96	0,645
262,17	12,137
262,39	11,842
262,60	3,438
262,81	0,769
263,03	12,805
263,24	10,540
263,46	2,194
263,67	6,255
263,88	10,647
264,10	7,301
264,31	6,409
264,52	4,562
264,74	13,995
264,95	6,696
265,17	9,029
265,38	9,484
265,59	13,939
265,81	9,780
266,02	-0,378
266,23	1,631
266,45	11,889
266,66	12,054
266,87	7,780
267,09	5,351
267,30	11,317
267,52	10,499
267,73	5,539
267,94	6,971
268,16	8,340
268,37	7,162
268,58	9,370
268,80	6,849
269,01	8,054
269,22	8,432
269,44	8,128
269,65	6,955
269,86	4,050
270,08	8,109
270,29	4,259
270,50	7,708
270,72	11,900
270,93	6,976
271,14	7,214
271,36	4,164
271,57	9,673
271,78	8,658
272,00	9,451
272,21	7,652
272,42	10,331
272,64	10,579
272,85	3,978
273,06	5,539
273,28	8,308
273,49	9,850
273,70	6,463
273,92	9,579
274,13	8,967
274,34	6,527
274,56	10,933
274,77	6,569
274,98	14,926
275,20	9,252
275,41	10,094
275,62	6,970
275,84	10,439
276,05	15,848
276,26	5,695
276,47	3,731
276,69	11,614
276,90	8,287
277,11	7,949
277,33	5,880
277,54	8,407
277,75	9,362
277,97	4,752
278,18	4,250
278,39	7,432
278,61	6,198
278,82	7,348
279,03	10,004
279,24	6,699
279,46	6,367
279,67	9,728
279,88	5,737
280,10	14,124
280,31	2,996
280,52	6,085
280,73	4,170
280,95	9,434
281,16	8,498
281,37	6,913
281,59	9,422
281,80	13,159
282,01	5,309
282,22	5,156
282,44	4,383
282,65	17,902
282,86	7,936
283,08	7,287
283,29	4,140
283,50	6,310
283,71	8,359
283,93	6,308
284,14	10,746
284,35	7,107
284,56	10,561
284,78	2,890
284,99	10,004
285,20	12,411
285,42	6,214
285,63	5,316
285,84	3,093
286,05	4,275
286,27	7,282
286,48	4,269
286,69	4,897
286,90	7,453
287,12	5,605
287,33	4,344
287,54	5,538
287,75	11,232
287,97	6,957
288,18	4,274
288,39	6,035
288,60	7,516
288,82	5,428
289,03	6,842
289,24	5,599
289,45	11,492
289,67	7,742
289,88	2,713
290,09	8,008
290,30	8,492
290,52	6,515
290,73	4,698
290,94	0,069
291,15	7,340
291,37	10,052
291,58	5,876
291,79	3,750
292,00	7,368
292,21	7,164
292,43	3,608
292,64	2,131
292,85	3,656
293,06	10,196
293,28	3,457
293,49	4,632
293,70	9,833
293,91	6,449
294,12	6,935
294,34	5,160
294,55	4,313
294,76	8,121
294,97	7,049
295,19	4,389
295,40	6,302
295,61	7,594
295,82	2,977
296,03	8,228
296,25	6,088
296,46	4,435
296,67	1,777
296,88	0,747
297,09	8,465
297,31	4,611
297,52	7,006
297,73	3,523
297,94	9,164
298,15	7,816
298,37	4,485
298,58	8,901
298,79	8,720
299,00	7,122
299,21	3,847
299,43	3,514
299,64	9,296
299,85	6,772
300,06	5,460
300,27	3,844
300,49	10,113
300,70	6,563
300,91	5,944
301,12	5,208
301,33	7,705
301,54	7,509
301,76	7,384
301,97	4,954
302,18	6,754
302,39	8,507
302,60	14,661
302,82	5,612
303,03	10,805
303,24	4,204
303,45	5,974
303,66	4,104
303,87	5,003
304,09	8,384
304,30	4,970
304,51	9,496
304,72	5,477
304,93	7,889
305,14	5,446
305,36	3,599
305,57	3,507
305,78	5,312
305,99	4,078
306,20	6,135
306,41	4,382
306,62	5,958
306,84	6,523
307,05	5,079
307,26	7,872
307,47	8,827
307,68	5,066
307,89	5,214
308,11	5,996
308,32	3,316
308,53	4,317
308,74	2,056
308,95	6,517
309,16	7,124
309,37	8,983
309,59	4,378
309,80	6,297
310,01	5,994
310,22	7,135
310,43	5,667
310,64	6,195
310,85	7,507
311,06	4,662
311,28	7,096
311,49	8,049
311,70	11,255
311,91	4,364
312,12	4,206
312,33	6,609
312,54	6,693
312,75	5,226
312,97	4,341
313,18	8,413
313,39	7,900
313,60	4,378
313,81	7,114
314,02	9,189
314,23	8,168
314,44	1,603
314,65	6,877
314,87	3,323
315,08	4,819
315,29	10,061
315,50	6,861
315,71	9,031
315,92	8,190
316,13	6,092
316,34	6,942
316,55	7,931
316,77	1,728
316,98	4,486
317,19	3,517
317,40	9,044
317,61	11,654
317,82	6,818
318,03	3,814
318,24	8,605
318,45	8,534
318,66	4,217
318,87	0,550
319,09	8,634
319,30	6,885
319,51	7,115
319,72	7,789
319,93	6,671
320,14	8,753
320,35	7,499
320,56	3,985
320,77	1,312
320,98	12,071
321,19	6,550
321,40	4,464
321,62	7,530
321,83	5,277
322,04	5,628
322,25	4,953
322,46	10,480
322,67	9,723
322,88	7,828
323,09	3,027
323,30	8,568
323,51	10,867
323,72	7,954
323,93	2,870
324,14	6,246
324,35	1,520
324,56	2,061
324,77	4,441
324,99	7,238
325,20	2,113
325,41	7,820
325,62	7,223
325,83	4,035
326,04	5,220
326,25	5,947
326,46	3,090
326,67	7,560
326,88	7,055
327,09	6,695
327,30	4,128
327,51	6,383
327,72	7,727
327,93	6,561
328,14	1,351
328,35	6,665
328,56	9,793
328,77	5,888
328,98	5,791
329,19	6,008
329,40	8,067
329,61	4,525
329,82	-0,813
330,04	7,868
330,25	3,851
330,46	5,595
330,67	5,317
330,88	7,371
331,09	6,633
331,30	6,115
331,51	5,413
331,72	7,456
331,93	6,478
332,14	5,747
332,35	7,999
332,56	8,052
332,77	7,192
332,98	3,507
333,19	3,509
333,40	7,259
333,61	5,880
333,82	9,032
334,03	8,821
334,24	9,804
334,45	7,547
334,66	6,406
334,87	5,395
335,08	6,214
335,29	6,004
335,50	5,529
335,71	2,924
335,92	7,474
336,13	10,461
336,34	2,752
336,55	7,755
336,76	11,502
336,97	6,263
337,18	5,207
337,39	6,335
337,60	7,539
337,81	4,535
338,02	3,765
338,23	2,477
338,44	7,156
338,65	5,966
338,86	6,580
339,07	3,820
339,28	11,145
339,49	4,711
339,70	3,120
339,91	4,683
340,11	9,496
340,32	6,310
340,53	5,828
340,74	1,805
340,95	4,468
341,16	7,480
341,37	7,594
341,58	3,419
341,79	6,359
342,00	5,063
342,21	4,498
342,42	5,511
342,63	8,107
342,84	4,402
343,05	7,606
343,26	8,659
343,47	4,419
343,68	7,460
343,89	4,428
344,10	6,879
344,31	8,797
344,52	6,728
344,73	5,419
344,94	4,258
345,14	6,631
345,35	8,615
345,56	3,246
345,77	5,626
345,98	5,913
346,19	8,246
346,40	6,947
346,61	5,058
346,82	8,238
347,03	4,294
347,24	8,960
347,45	6,875
347,66	9,826
347,87	5,651
348,08	8,223
348,28	4,206
348,49	9,599
348,70	9,108
348,91	6,023
349,12	3,694
349,33	20,097
349,54	5,334
349,75	7,802
349,96	4,793
350,17	9,392
350,38	6,154
350,59	6,794
350,80	6,444
351,00	10,816
351,21	8,233
351,42	6,662
351,63	0,127
351,84	7,040
352,05	10,355
352,26	5,955
352,47	5,241
352,68	7,676
352,89	8,045
353,09	9,506
353,30	3,717
353,51	6,247
353,72	9,340
353,93	10,126
354,14	3,128
354,35	8,760
354,56	9,440
354,77	7,043
354,98	4,681
355,18	8,802
355,39	10,329
355,60	9,051
355,81	5,501
356,02	9,944
356,23	8,010
356,44	4,993
356,65	6,923
356,85	10,951
357,06	11,570
357,27	9,975
357,48	4,633
357,69	7,531
357,90	8,814
358,11	3,729
358,32	5,266
358,52	9,731
358,73	6,633
358,94	3,456
359,15	7,597
359,36	7,610
359,57	6,933
359,78	10,363
359,98	5,059
360,19	3,781
360,40	8,388
360,61	9,845
360,82	5,095
361,03	12,342
361,24	12,556
361,44	4,523
361,65	9,008
361,86	3,516
362,07	8,408
362,28	8,411
362,49	4,214
362,70	6,473
362,90	7,423
363,11	3,486
363,32	4,854
363,53	8,813
363,74	12,471
363,95	9,341
364,15	7,823
364,36	12,581
364,57	7,256
364,78	7,623
364,99	6,666
365,20	10,593
365,40	9,443
365,61	6,782
365,82	9,808
366,03	10,686
366,24	9,761
366,45	5,179
366,65	4,809
366,86	6,291
367,07	8,203
367,28	6,254
367,49	6,310
367,69	13,082
367,90	7,379
368,11	4,369
368,32	5,114
368,53	8,802
368,73	11,771
368,94	6,676
369,15	5,900
369,36	13,549
369,57	7,772
369,78	5,979
369,98	10,233
370,19	11,472
370,40	8,812
370,61	9,183
370,82	8,162
371,02	10,986
371,23	12,613
371,44	7,561
371,65	10,350
371,85	10,324
372,06	7,266
372,27	8,544
372,48	10,396
372,69	8,493
372,89	7,055
373,10	9,207
373,31	7,978
373,52	10,946
373,73	11,258
373,93	8,354
374,14	6,249
374,35	15,126
374,56	12,094
374,76	9,772
374,97	8,936
375,18	13,247
375,39	6,730
375,60	10,842
375,80	8,723
376,01	9,289
376,22	11,313
376,43	10,948
376,63	6,859
376,84	8,832
377,05	9,919
377,26	8,331
377,46	6,568
377,67	7,489
377,88	9,860
378,09	9,004
378,29	9,188
378,50	13,213
378,71	14,726
378,92	10,366
379,12	8,084
379,33	11,047
379,54	10,384
379,75	10,776
379,95	9,181
380,16	13,060
380,37	15,412
380,58	11,568
380,78	13,595
380,99	11,124
381,20	11,454
381,41	11,145
381,61	11,906
381,82	11,795
382,03	14,041
382,24	13,538
382,44	11,420
382,65	12,512
382,86	12,646
383,06	12,281
383,27	16,755
383,48	10,218
383,69	13,239
383,89	15,289
384,10	11,790
384,31	12,616
384,51	18,628
384,72	17,199
384,93	11,132
385,14	11,839
385,34	15,481
385,55	14,093
385,76	11,704
385,96	17,991
386,17	15,001
386,38	17,203
386,59	16,429
386,79	15,170
387,00	21,336
387,21	20,345
387,41	20,745
387,62	16,709
387,83	22,031
388,03	14,527
388,24	12,642
388,45	16,403
388,66	20,327
388,86	20,454
389,07	15,280
389,28	24,771
389,48	22,285
389,69	19,691
389,90	15,848
390,10	22,009
390,31	21,369
390,52	12,995
390,72	19,169
390,93	20,899
391,14	20,199
391,34	18,467
391,55	21,151
391,76	23,821
391,96	22,893
392,17	19,614
392,38	22,284
392,58	23,600
392,79	25,291
393,00	18,776
393,20	17,400
393,41	21,070
393,62	23,863
393,82	23,947
394,03	24,284
394,24	22,999
394,44	27,361
394,65	23,292
394,86	20,417
395,06	25,965
395,27	23,924
395,48	25,381
395,68	23,668
395,89	28,238
396,10	27,544
396,30	23,988
396,51	21,067
396,72	27,481
396,92	23,028
397,13	29,076
397,34	21,770
397,54	30,022
397,75	23,513
397,95	24,137
398,16	24,702
398,37	22,862
398,57	25,263
398,78	27,001
398,99	26,946
399,19	30,106
399,40	33,408
399,60	25,526
399,81	27,909
400,02	32,094
400,22	31,770
400,43	26,678
400,64	26,416
400,84	25,853
401,05	34,088
401,25	31,527
401,46	28,164
401,67	29,752
401,87	28,096
402,08	28,107
402,29	29,276
402,49	33,543
402,70	31,780
402,90	28,906
403,11	27,816
403,32	30,145
403,52	30,553
403,73	33,406
403,93	30,826
404,14	36,576
404,35	30,721
404,55	29,441
404,76	32,610
404,96	34,779
405,17	33,570
405,38	37,247
405,58	32,805
405,79	36,231
405,99	41,171
406,20	32,451
406,40	30,035
406,61	37,433
406,82	31,864
407,02	31,367
407,23	31,738
407,43	31,935
407,64	35,476
407,85	34,161
408,05	29,840
408,26	41,916
408,46	38,498
408,67	31,991
408,87	32,878
409,08	35,525
409,29	42,108
409,49	39,159
409,70	36,161
409,90	36,313
410,11	39,159
410,31	38,846
410,52	34,166
410,72	32,676
410,93	40,812
411,14	38,358
411,34	30,640
411,55	36,698
411,75	38,555
411,96	38,599
412,16	38,068
412,37	34,171
412,57	40,762
412,78	34,831
412,99	37,153
413,19	44,692
413,40	37,718
413,60	33,914
413,81	33,236
414,01	39,597
414,22	39,276
414,42	41,066
414,63	34,826
414,83	42,786
415,04	41,539
415,24	36,582
415,45	36,699
415,65	40,409
415,86	42,979
416,07	41,830
416,27	42,225
416,48	40,703
416,68	43,900
416,89	35,944
417,09	38,397
417,30	42,174
417,50	38,928
417,71	43,999
417,91	40,350
418,12	37,716
418,32	43,084
418,53	38,815
418,73	41,021
418,94	37,838
419,14	42,399
419,35	38,091
419,55	42,050
419,76	43,480
419,96	39,264
420,17	37,700
420,37	41,707
420,58	44,881
420,78	41,126
420,99	39,716
421,19	41,970
421,40	43,563
421,60	48,186
421,81	36,574
422,01	44,267
422,22	41,274
422,42	44,617
422,63	44,817
422,83	39,176
423,04	44,261
423,24	46,608
423,45	40,201
423,65	41,861
423,86	48,035
424,06	44,988
424,27	40,811
424,47	39,916
424,67	44,014
424,88	43,261
425,08	39,695
425,29	47,465
425,49	41,230
425,70	34,332
425,90	40,551
426,11	38,771
426,31	38,759
426,52	43,884
426,72	42,223
426,93	40,638
427,13	45,817
427,33	39,405
427,54	43,671
427,74	44,828
427,95	46,991
428,15	40,762
428,36	38,035
428,56	41,286
428,77	42,000
428,97	40,742
429,18	43,494
429,38	42,678
429,58	46,094
429,79	41,302
429,99	42,052
430,20	34,964
430,40	46,265
430,61	39,228
430,81	40,130
431,01	44,261
431,22	43,024
431,42	47,771
431,63	38,881
431,83	41,460
432,04	42,352
432,24	48,650
432,44	40,741
432,65	40,567
432,85	42,935
433,06	43,111
433,26	40,824
433,47	39,645
433,67	38,041
433,87	38,065
434,08	36,843
434,28	40,239
434,49	38,902
434,69	47,123
434,89	35,868
435,10	41,269
435,30	44,600
435,51	38,726
435,71	39,580
435,91	37,203
436,12	40,377
436,32	36,880
436,53	39,661
436,73	38,345
436,93	41,420
437,14	41,168
437,34	42,282
437,55	42,119
437,75	45,635
437,95	45,713
438,16	41,117
438,36	40,893
438,57	42,367
438,77	40,487
438,97	43,049
439,18	44,702
439,38	41,430
439,58	42,425
439,79	41,233
439,99	42,071
440,20	43,924
440,40	44,364
440,60	43,628
440,81	43,644
441,01	42,888
441,21	43,259
441,42	43,971
441,62	43,211
441,83	42,254
442,03	48,739
442,23	44,288
442,44	42,788
442,64	43,523
442,84	40,716
443,05	43,858
443,25	37,215
443,45	44,149
443,66	44,064
443,86	40,259
444,06	46,127
444,27	37,892
444,47	45,314
444,67	39,719
444,88	44,581
445,08	43,409
445,28	41,043
445,49	43,049
445,69	35,412
445,90	47,394
446,10	45,525
446,30	40,117
446,51	39,472
446,71	48,941
446,91	47,345
447,12	47,294
447,32	37,006
447,52	45,191
447,72	43,979
447,93	42,133
448,13	38,799
448,33	49,165
448,54	46,926
448,74	37,316
448,94	43,593
449,15	47,906
449,35	46,704
449,55	43,860
449,76	47,150
449,96	43,165
450,16	43,583
450,37	39,269
450,57	42,960
450,77	40,944
450,98	46,870
451,18	44,081
451,38	44,326
451,58	48,741
451,79	45,878
451,99	43,906
452,19	41,516
452,40	49,882
452,60	39,967
452,80	38,615
453,00	46,549
453,21	41,689
453,41	48,447
453,61	41,958
453,82	45,858
454,02	41,073
454,22	47,148
454,42	45,345
454,63	43,100
454,83	42,857
455,03	48,594
455,24	41,315
455,44	43,247
455,64	42,467
455,84	39,239
456,05	41,116
456,25	39,819
456,45	44,487
456,65	41,748
456,86	40,713
457,06	40,237
457,26	54,665
457,47	48,581
457,67	42,571
457,87	40,932
458,07	44,117
458,28	47,040
458,48	45,975
458,68	39,458
458,88	50,877
459,09	45,180
459,29	46,213
459,49	44,861
459,69	43,497
459,90	49,582
460,10	42,761
460,30	39,547
460,50	41,007
460,71	46,254
460,91	38,089
461,11	43,559
461,31	39,738
461,52	47,738
461,72	44,020
461,92	42,396
462,12	49,514
462,32	41,659
462,53	42,764
462,73	42,772
462,93	44,906
463,13	41,614
463,34	43,110
463,54	44,240
463,74	45,937
463,94	41,275
464,14	42,721
464,35	35,430
464,55	46,458
464,75	48,073
464,95	44,099
465,16	40,748
465,36	46,655
465,56	40,337
465,76	41,204
465,96	46,582
466,17	43,239
466,37	40,577
466,57	43,025
466,77	42,306
466,97	40,856
467,18	45,106
467,38	45,055
467,58	44,984
467,78	47,284
467,98	46,113
468,19	43,069
468,39	45,421
468,59	43,577
468,79	40,311
468,99	41,511
469,19	38,193
469,40	43,202
469,60	44,735
469,80	39,338
470,00	47,047
470,20	47,603
470,41	43,343
470,61	43,493
470,81	41,950
471,01	39,170
471,21	40,253
471,41	41,138
471,62	42,357
471,82	41,466
472,02	42,639
472,22	43,763
472,42	42,063
472,62	44,406
472,83	44,138
473,03	44,761
473,23	43,194
473,43	48,769
473,63	44,517
473,83	41,704
474,03	40,664
474,24	49,112
474,44	40,136
474,64	40,274
474,84	39,645
475,04	41,827
475,24	44,911
475,45	39,497
475,65	40,958
475,85	45,408
476,05	36,236
476,25	41,845
476,45	38,353
476,65	50,515
476,85	41,150
477,06	38,677
477,26	40,346
477,46	40,418
477,66	43,397
477,86	43,551
478,06	39,092
478,26	47,876
478,46	39,632
478,67	40,591
478,87	39,475
479,07	38,894
479,27	40,096
479,47	39,970
479,67	36,377
479,87	36,057
480,07	42,901
480,28	39,966
480,48	38,789
480,68	41,606
480,88	44,636
481,08	40,041
481,28	43,247
481,48	43,086
481,68	38,148
481,88	37,114
482,08	35,093
482,29	40,408
482,49	36,299
482,69	38,446
482,89	39,459
483,09	41,539
483,29	37,030
483,49	37,447
483,69	41,560
483,89	39,846
484,09	35,334
484,29	35,943
484,50	36,870
484,70	41,321
484,90	35,944
485,10	37,726
485,30	38,436
485,50	43,564
485,70	39,313
485,90	34,915
486,10	34,876
486,30	38,282
486,50	38,985
486,70	38,973
486,90	34,499
487,10	41,295
487,30	37,594
487,51	39,850
487,71	33,154
487,91	37,351
488,11	38,333
488,31	34,903
488,51	40,199
488,71	36,527
488,91	39,169
489,11	34,294
489,31	36,740
489,51	37,416
489,71	37,430
489,91	35,979
490,11	35,764
490,31	37,257
490,51	38,992
490,71	38,538
490,91	35,489
491,11	39,412
491,31	36,562
491,51	33,648
491,72	36,316
491,92	38,534
492,12	42,681
492,32	39,428
492,52	39,156
492,72	38,338
492,92	38,228
493,12	38,703
493,32	34,329
493,52	34,220
493,72	38,104
493,92	40,017
494,12	37,355
494,32	38,144
494,52	39,024
494,72	36,133
494,92	34,288
495,12	39,617
495,32	39,687
495,52	37,775
495,72	38,095
495,92	39,599
496,12	41,309
496,32	34,524
496,52	36,540
496,72	37,546
496,92	38,557
497,12	37,493
497,32	39,457
497,52	39,994
497,72	40,183
497,92	38,165
498,12	36,121
498,32	39,667
498,52	36,749
498,72	34,788
498,92	35,503
499,12	41,631
499,32	34,897
499,52	37,108
499,72	40,280
499,92	40,307
500,12	37,870
500,32	41,024
500,52	37,392
500,72	42,336
500,91	41,795
501,11	35,147
501,31	34,453
501,51	39,797
501,71	40,117
501,91	37,666
502,11	35,143
502,31	37,843
502,51	39,994
502,71	36,142
502,91	35,636
503,11	38,102
503,31	37,997
503,51	32,400
503,71	35,092
503,91	39,267
504,11	36,826
504,31	37,453
504,51	37,433
504,71	44,716
504,91	36,449
505,10	36,722
505,30	39,021
505,50	38,100
505,70	36,557
505,90	37,045
506,10	34,092
506,30	37,018
506,50	38,737
506,70	42,260
506,90	35,089
507,10	38,704
507,30	38,299
507,50	37,358
507,70	38,105
507,89	38,746
508,09	33,817
508,29	37,078
508,49	35,831
508,69	35,434
508,89	34,034
509,09	35,202
509,29	36,289
509,49	38,764
509,69	39,831
509,89	36,506
510,09	34,457
510,28	40,280
510,48	38,239
510,68	33,873
510,88	32,608
511,08	34,717
511,28	35,521
511,48	34,534
511,68	33,473
511,88	30,415
512,07	36,529
512,27	36,281
512,47	34,668
512,67	33,567
512,87	31,172
513,07	35,285
513,27	30,604
513,47	33,779
513,67	32,701
513,86	34,182
514,06	31,603
514,26	36,649
514,46	38,268
514,66	34,812
514,86	33,249
515,06	38,647
515,26	37,248
515,45	34,033
515,65	30,170
515,85	33,858
516,05	32,810
516,25	36,594
516,45	34,890
516,65	31,696
516,84	35,721
517,04	37,501
517,24	32,747
517,44	34,805
517,64	34,292
517,84	36,272
518,04	33,958
518,23	36,663
518,43	39,625
518,63	31,684
518,83	29,389
519,03	32,051
519,23	34,765
519,42	33,844
519,62	30,773
519,82	30,170
520,02	30,750
520,22	32,824
520,42	31,856
520,61	33,479
520,81	36,159
521,01	38,012
521,21	31,521
521,41	32,086
521,61	34,590
521,80	30,174
522,00	31,783
522,20	32,657
522,40	33,874
522,60	30,004
522,79	32,045
522,99	34,815
523,19	30,024
523,39	31,461
523,59	29,392
523,78	35,404
523,98	31,863
524,18	34,187
524,38	29,024
524,58	32,055
524,77	32,955
524,97	32,324
525,17	31,352
525,37	30,987
525,57	34,104
525,76	30,825
525,96	31,723
526,16	31,489
526,36	29,470
526,56	32,456
526,75	28,599
526,95	29,974
527,15	33,714
527,35	30,468
527,55	29,567
527,74	33,024
527,94	30,368
528,14	28,472
528,34	31,019
528,53	30,391
528,73	34,816
528,93	30,414
529,13	27,132
529,32	27,533
529,52	30,390
529,72	30,437
529,92	31,102
530,12	27,788
530,31	27,904
530,51	28,574
530,71	29,860
530,91	34,212
531,10	27,152
531,30	29,902
531,50	26,860
531,70	30,409
531,89	28,969
532,09	27,298
532,29	28,111
532,49	30,830
532,68	29,890
532,88	27,772
533,08	26,642
533,28	27,725
533,47	28,232
533,67	30,613
533,87	25,732
534,06	36,424
534,26	29,377
534,46	27,998
534,66	29,884
534,85	30,245
535,05	23,211
535,25	26,476
535,45	26,081
535,64	29,542
535,84	28,274
536,04	24,882
536,23	28,417
536,43	29,613
536,63	27,398
536,83	27,812
537,02	25,045
537,22	25,758
537,42	26,222
537,61	27,941
537,81	28,544
538,01	28,819
538,20	28,027
538,40	24,305
538,60	26,320
538,80	25,021
538,99	26,652
539,19	26,828
539,39	24,293
539,58	26,555
539,78	22,982
539,98	23,451
540,17	20,696
540,37	24,228
540,57	22,888
540,76	21,164
540,96	21,321
541,16	23,019
541,36	22,402
541,55	17,271
541,75	19,571
541,95	19,115
542,14	19,857
542,34	18,002
542,54	19,790
542,73	20,372
542,93	21,842
543,13	18,409
543,32	19,180
543,52	19,900
543,72	17,574
543,91	19,767
544,11	20,248
544,31	18,882
544,50	18,238
544,70	19,570
544,89	19,990
545,09	22,328
545,29	20,383
545,48	20,932
545,68	19,452
545,88	21,178
546,07	20,394
546,27	18,927
546,47	22,143
546,66	23,310
546,86	23,547
547,06	21,810
547,25	21,799
547,45	25,616
547,64	22,998
547,84	25,418
548,04	24,545
548,23	27,771
548,43	25,048
548,63	25,834
548,82	24,933
549,02	24,258
549,21	23,535
549,41	25,909
549,61	23,310
549,80	24,718
550,00	24,696
550,20	23,292
550,39	26,628
550,59	22,415
550,78	26,362
550,98	21,819
551,18	25,628
551,37	25,179
551,57	24,376
551,76	24,601
551,96	25,512
552,16	25,182
552,35	25,725
552,55	24,595
552,74	26,349
552,94	28,856
553,14	24,705
553,33	24,862
553,53	24,699
553,72	25,760
553,92	28,204
554,12	22,847
554,31	24,694
554,51	25,102
554,70	24,782
554,90	24,659
555,09	27,388
555,29	26,938
555,49	26,219
555,68	26,867
555,88	25,908
556,07	26,903
556,27	27,869
556,46	26,518
556,66	22,430
556,86	29,073
557,05	27,257
557,25	26,245
557,44	24,616
557,64	23,133
557,83	26,428
558,03	24,418
558,22	23,870
558,42	27,282
558,62	28,216
558,81	24,096
559,01	25,607
559,20	28,946
559,40	26,221
559,59	24,800
559,79	24,127
559,98	25,307
560,18	28,734
560,37	27,912
560,57	28,106
560,76	23,739
560,96	22,665
561,16	27,893
561,35	26,412
561,55	30,330
561,74	24,467
561,94	27,157
562,13	23,498
562,33	28,897
562,52	27,982
562,72	25,491
562,91	24,033
563,11	26,276
563,30	28,583
563,50	22,087
563,69	24,705
563,89	26,263
564,08	28,148
564,28	27,459
564,47	26,239
564,67	24,342
564,86	26,967
565,06	24,086
565,25	25,245
565,45	25,605
565,64	30,100
565,84	25,965
566,03	24,627
566,23	23,255
566,42	27,574
566,62	25,507
566,81	24,379
567,01	25,253
567,20	26,942
567,40	22,722
567,59	24,399
567,79	28,013
567,98	29,283
568,18	27,723
568,37	25,971
568,57	27,431
568,76	28,367
568,96	24,127
569,15	25,916
569,35	29,268
569,54	28,708
569,73	27,299
569,93	24,586
570,12	23,398
570,32	27,273
570,51	28,485
570,71	27,633
570,90	28,168
571,10	26,088
571,29	25,310
571,49	24,981
571,68	27,961
571,87	27,902
572,07	25,659
572,26	24,872
572,46	26,915
572,65	26,384
572,85	24,956
573,04	27,720
573,24	25,437
573,43	30,084
573,62	28,807
573,82	27,452
574,01	28,141
574,21	27,225
574,40	24,716
574,60	26,890
574,79	29,897
574,98	26,851
575,18	28,958
575,37	24,615
575,57	28,109
575,76	28,493
575,96	26,211
576,15	26,919
576,34	27,950
576,54	28,124
576,73	27,784
576,93	27,490
577,12	28,183
577,31	29,472
577,51	27,229
577,70	27,343
577,90	27,803
578,09	27,632
578,28	27,695
578,48	28,040
578,67	29,560
578,87	28,759
579,06	28,063
579,25	28,825
579,45	27,436
579,64	29,583
579,84	28,122
580,03	26,572
580,22	29,793
580,42	27,431
580,61	28,302
580,81	26,593
581,00	29,093
581,19	30,268
581,39	27,985
581,58	27,943
581,77	29,017
581,97	31,329
582,16	28,816
582,35	27,674
582,55	29,333
582,74	31,985
582,94	29,932
583,13	27,074
583,32	29,685
583,52	29,684
583,71	29,342
583,90	28,660
584,10	29,154
584,29	31,345
584,48	28,176
584,68	31,008
584,87	32,067
585,06	30,722
585,26	27,990
585,45	30,506
585,65	32,120
585,84	29,873
586,03	31,178
586,23	29,612
586,42	31,142
586,61	32,286
586,81	30,996
587,00	29,906
587,19	30,118
587,39	32,557
587,58	31,843
587,77	30,842
587,97	30,972
588,16	29,702
588,35	30,507
588,54	31,307
588,74	32,093
588,93	34,048
589,12	32,834
589,32	32,284
589,51	32,595
589,70	29,872
589,90	31,951
590,09	31,326
590,28	34,056
590,48	31,929
590,67	33,378
590,86	33,576
591,06	34,136
591,25	34,956
591,44	34,995
591,63	33,318
591,83	34,578
592,02	32,808
592,21	31,872
592,41	33,961
592,60	34,010
592,79	34,532
592,98	33,939
593,18	34,057
593,37	33,523
593,56	35,673
593,76	35,266
593,95	33,459
594,14	35,685
594,33	38,516
594,53	33,159
594,72	36,001
594,91	38,021
595,10	37,344
595,30	36,137
595,49	34,015
595,68	37,343
595,88	37,063
596,07	37,428
596,26	36,622
596,45	36,063
596,65	34,418
596,84	34,975
597,03	38,785
597,22	37,060
597,42	39,770
597,61	37,025
597,80	38,252
597,99	37,511
598,19	38,352
598,38	38,382
598,57	36,774
598,76	39,495
598,95	40,668
599,15	39,560
599,34	38,057
599,53	39,646
599,72	39,735
599,92	40,259
600,11	38,277
600,30	39,957
600,49	40,013
600,69	39,037
600,88	41,620
601,07	39,746
601,26	39,004
601,45	40,565
601,65	39,655
601,84	41,341
602,03	40,785
602,22	41,720
602,42	42,871
602,61	38,963
602,80	41,107
602,99	40,741
603,18	39,832
603,38	42,483
603,57	39,819
603,76	40,173
603,95	40,341
604,14	41,330
604,34	41,558
604,53	41,575
604,72	44,326
604,91	42,628
605,10	42,047
605,29	43,457
605,49	39,129
605,68	40,851
605,87	45,502
606,06	39,830
606,25	40,023
606,45	41,867
606,64	44,080
606,83	43,091
607,02	42,283
607,21	43,293
607,40	41,517
607,60	39,322
607,79	40,119
607,98	40,301
608,17	41,355
608,36	41,190
608,55	40,331
608,75	40,756
608,94	41,065
609,13	36,050
609,32	34,566
609,51	37,890
609,70	35,422
609,89	38,098
610,09	36,463
610,28	39,189
610,47	36,126
610,66	35,900
610,85	36,005
611,04	37,986
611,23	35,225
611,43	35,770
611,62	35,797
611,81	35,868
612,00	36,394
612,19	35,951
612,38	36,927
612,57	38,432
612,77	37,090
612,96	38,238
613,15	39,779
613,34	40,383
613,53	40,225
613,72	41,788
613,91	41,159
614,10	40,361
614,29	43,809
614,49	40,812
614,68	40,403
614,87	44,077
615,06	44,520
615,25	41,077
615,44	42,970
615,63	44,440
615,82	41,270
616,01	42,950
616,21	43,506
616,40	45,949
616,59	48,131
616,78	44,742
616,97	45,170
617,16	43,908
617,35	47,931
617,54	44,653
617,73	44,460
617,92	44,793
618,11	46,670
618,31	43,473
618,50	45,513
618,69	45,887
618,88	45,260
619,07	43,619
619,26	43,456
619,45	43,217
619,64	44,353
619,83	44,854
620,02	43,389
620,21	47,389
620,40	45,957
620,59	45,673
620,78	43,410
620,97	46,958
621,17	45,143
621,36	45,124
621,55	45,741
621,74	46,570
621,93	45,765
622,12	45,725
622,31	44,284
622,50	46,682
622,69	48,047
622,88	44,921
623,07	46,469
623,26	46,916
623,45	48,725
623,64	45,797
623,83	45,836
624,02	48,977
624,21	47,630
624,40	47,065
624,59	44,945
624,78	47,916
624,97	50,939
625,16	45,040
625,35	44,587
625,54	45,571
625,73	47,699
625,92	48,689
626,12	49,843
626,31	48,544
626,50	50,286
626,69	47,058
626,88	45,244
627,07	48,436
627,26	48,880
627,45	46,206
627,64	46,442
627,83	47,990
628,02	47,605
628,21	46,138
628,40	46,353
628,59	49,150
628,78	46,511
628,97	46,376
629,16	45,559
629,35	48,062
629,54	48,775
629,73	47,996
629,92	44,581
630,10	47,735
630,29	50,540
630,48	46,779
630,67	45,877
630,86	48,965
631,05	48,415
631,24	49,102
631,43	44,823
631,62	47,712
631,81	47,457
632,00	45,717
632,19	45,812
632,38	48,253
632,57	49,379
632,76	48,255
632,95	48,767
633,14	51,209
633,33	50,088
633,52	48,893
633,71	49,687
633,90	47,608
634,09	47,597
634,28	50,497
634,47	47,652
634,66	49,789
634,85	50,269
635,04	51,325
635,22	48,834
635,41	47,949
635,60	51,585
635,79	49,642
635,98	45,581
636,17	47,879
636,36	49,797
636,55	48,471
636,74	47,747
636,93	48,832
637,12	49,809
637,31	47,663
637,50	48,002
637,69	50,550
637,87	51,431
638,06	50,718
638,25	48,237
638,44	49,371
638,63	47,834
638,82	49,244
639,01	49,177
639,20	49,328
639,39	50,705
639,58	47,923
639,77	51,264
639,95	48,695
640,14	50,632
640,33	48,061
640,52	49,402
640,71	52,188
640,90	49,922
641,09	52,239
641,28	49,935
641,47	50,104
641,66	49,337
641,84	48,835
642,03	47,873
642,22	49,972
642,41	52,146
642,60	50,652
642,79	48,153
642,98	50,152
643,17	47,669
643,35	46,520
643,54	48,860
643,73	51,263
643,92	50,304
644,11	49,319
644,30	49,260
644,49	52,602
644,67	50,257
644,86	47,946
645,05	52,038
645,24	51,145
645,43	50,916
645,62	50,883
645,81	49,619
645,99	51,218
646,18	53,148
646,37	48,111
646,56	50,930
646,75	51,631
646,94	50,737
647,13	48,645
647,31	48,700
647,50	49,000
647,69	52,892
647,88	50,223
648,07	50,181
648,26	55,841
648,44	51,341
648,63	51,167
648,82	48,990
649,01	50,812
649,20	48,486
649,38	49,848
649,57	49,375
649,76	47,894
649,95	50,715
650,14	48,668
650,33	49,589
650,51	50,967
650,70	51,547
650,89	49,832
651,08	50,500
651,27	51,604
651,45	49,616
651,64	48,404
651,83	51,219
652,02	50,968
652,21	50,335
652,39	51,563
652,58	50,659
652,77	48,793
652,96	51,666
653,15	49,841
653,33	50,214
653,52	49,531
653,71	53,285
653,90	52,210
654,09	51,492
654,27	52,199
654,46	54,422
654,65	52,024
654,84	52,186
655,02	54,192
655,21	53,782
655,40	53,299
655,59	52,627
655,77	53,837
655,96	52,988
656,15	53,090
656,34	53,668
656,53	53,422
656,71	53,053
656,90	51,244
657,09	52,347
657,28	54,044
657,46	49,902
657,65	51,757
657,84	50,517
658,03	53,319
658,21	52,896
658,40	49,456
658,59	50,028
658,78	52,223
658,96	49,272
659,15	50,453
659,34	50,306
659,52	51,240
659,71	52,839
659,90	49,122
660,09	50,791
660,27	50,633
660,46	52,456
660,65	50,463
660,84	49,198
661,02	50,423
661,21	51,253
661,40	49,745
661,58	50,849
661,77	51,492
661,96	45,846
662,15	52,057
662,33	49,577
662,52	50,035
662,71	52,352
662,89	48,008
663,08	49,499
663,27	51,061
663,45	50,326
663,64	50,922
663,83	48,559
664,02	50,155
664,20	50,198
664,39	48,694
664,58	49,245
664,76	50,111
664,95	50,970
665,14	50,453
665,32	46,647
665,51	52,309
665,70	51,408
665,88	50,273
666,07	50,107
666,26	52,108
666,44	51,894
666,63	49,994
666,82	48,872
667,00	50,777
667,19	47,596
667,38	47,588
667,56	51,047
667,75	50,957
667,94	50,569
668,12	47,701
668,31	48,457
668,50	48,951
668,68	50,891
668,87	49,583
669,06	50,547
669,24	48,438
669,43	48,429
669,62	48,103
669,80	47,472
669,99	49,060
670,18	49,696
670,36	48,581
670,55	50,462
670,74	50,100
670,92	47,651
671,11	51,216
671,29	50,101
671,48	51,416
671,67	49,967
671,85	49,130
672,04	48,257
672,23	47,908
672,41	49,567
672,60	49,579
672,78	48,032
672,97	51,219
673,16	49,208
673,34	48,710
673,53	47,664
673,71	50,290
673,90	51,788
674,09	48,380
674,27	48,758
674,46	49,538
674,64	48,146
674,83	49,728
675,02	47,932
675,20	48,624
675,39	48,996
675,57	48,857
675,76	48,571
675,95	51,059
676,13	52,175
676,32	51,099
676,50	49,747
676,69	48,012
676,88	48,787
677,06	47,815
677,25	49,435
677,43	52,092
677,62	50,303
677,80	48,952
677,99	49,269
678,18	51,721
678,36	52,013
678,55	47,954
678,73	48,001
678,92	50,162
679,10	50,513
679,29	51,002
679,48	48,619
679,66	48,886
679,85	49,504
680,03	48,424
680,22	49,606
680,40	48,867
680,59	48,774
680,77	48,252
680,96	50,304
681,15	48,585
681,33	51,740
681,52	48,311
681,70	48,917
681,89	51,621
682,07	50,287
682,26	47,669
682,44	49,467
682,63	50,242
682,81	50,228
683,00	49,532
683,18	47,410
683,37	52,062
683,55	48,881
683,74	50,890
683,92	56,569
684,11	51,031
684,29	50,984
684,48	46,177
684,67	49,322
684,85	51,396
685,04	50,655
685,22	50,526
685,41	49,526
685,59	50,127
685,78	47,913
685,96	48,568
686,15	49,356
686,33	47,790
686,52	49,867
686,70	50,342
686,89	49,449
687,07	52,216
687,26	51,869
687,44	50,206
687,62	49,768
687,81	51,129
687,99	52,407
688,18	49,639
688,36	50,081
688,55	52,975
688,73	48,960
688,92	48,499
689,10	50,007
689,29	52,091
689,47	53,586
689,66	51,070
689,84	49,815
690,03	53,118
690,21	50,984
690,40	49,282
690,58	49,090
690,76	49,608
690,95	54,415
691,13	48,781
691,32	50,747
691,50	50,487
691,69	52,470
691,87	48,542
692,06	50,306
692,24	49,237
692,43	52,418
692,61	48,310
692,79	49,598
692,98	48,565
693,16	51,775
693,35	50,418
693,53	50,567
693,72	51,613
693,90	52,295
694,08	48,114
694,27	49,841
694,45	51,837
694,64	53,609
694,82	49,885
695,01	48,700
695,19	50,843
695,37	50,680
695,56	50,675
695,74	50,724
695,93	52,405
696,11	51,192
696,29	52,096
696,48	50,780
696,66	53,465
696,85	51,704
697,03	50,288
697,21	53,575
697,40	51,568
697,58	52,255
697,77	50,525
697,95	51,378
698,13	53,685
698,32	50,711
698,50	50,849
698,69	49,844
698,87	52,684
699,05	49,792
699,24	49,608
699,42	49,761
699,60	47,873
699,79	50,637
699,97	49,309
700,16	48,904
700,34	52,036
700,52	50,898
700,71	50,947
700,89	49,573
701,07	49,481
701,26	51,886
701,44	49,741
701,63	50,615
701,81	52,060
701,99	52,277
702,18	49,819
702,36	48,664
702,54	50,973
702,73	51,279
702,91	49,193
703,09	50,744
703,28	50,083
703,46	52,176
703,64	50,656
703,83	50,216
704,01	50,701
704,19	51,091
704,38	48,577
704,56	49,548
704,74	49,804
704,93	52,066
705,11	51,387
705,29	49,550
705,48	56,517
705,66	50,871
705,84	49,228
706,03	48,528
706,21	51,231
706,39	50,382
706,58	48,832
706,76	50,767
706,94	51,321
707,12	51,405
707,31	49,288
707,49	48,104
707,67	51,318
707,86	53,932
708,04	51,443
708,22	49,987
708,41	50,921
708,59	53,358
708,77	48,047
708,95	49,952
709,14	54,651
709,32	50,512
709,50	48,078
709,69	47,746
709,87	50,584
710,05	49,506
710,23	49,383
710,42	48,792
710,60	51,353
710,78	52,700
710,97	49,339
711,15	50,008
711,33	54,430
711,51	47,766
711,70	48,073
711,88	48,873
712,06	52,442
712,24	50,288
712,43	50,044
712,61	49,396
712,79	49,528
712,97	49,863
713,16	50,447
713,34	50,805
713,52	50,552
713,70	50,412
713,89	52,091
714,07	47,520
714,25	49,505
714,43	51,878
714,62	49,469
714,80	49,298
714,98	48,299
715,16	49,087
715,35	48,742
715,53	49,361
715,71	53,142
715,89	54,053
716,07	50,227
716,26	54,177
716,44	52,014
716,62	50,745
716,80	50,727
716,99	50,435
717,17	53,410
717,35	50,836
717,53	49,452
717,71	48,896
717,90	50,969
718,08	51,862
718,26	46,231
718,44	50,481
718,62	52,423
718,81	52,123
718,99	48,936
719,17	49,226
719,35	50,001
719,53	48,378
719,72	49,201
719,90	49,225
720,08	49,931
720,26	50,848
720,44	48,062
720,62	49,604
720,81	52,539
720,99	54,267
721,17	49,171
721,35	51,273
721,53	51,928
721,72	53,601
721,90	50,708
722,08	49,277
722,26	51,375
722,44	51,893
722,62	48,752
722,81	48,616
722,99	49,767
723,17	49,372
723,35	51,973
723,53	48,525
723,71	51,781
723,89	54,302
724,08	47,280
724,26	51,230
724,44	49,295
724,62	51,389
724,80	50,446
724,98	50,983
725,16	55,640
725,35	49,759
725,53	51,194
725,71	48,243
725,89	50,575
726,07	55,622
726,25	53,993
726,43	49,736
726,61	52,499
726,80	51,730
726,98	50,126
727,16	49,311
727,34	51,271
727,52	51,821
727,70	49,141
727,88	51,956
728,06	46,839
728,25	48,392
728,43	51,139
728,61	49,697
728,79	51,100
728,97	52,260
729,15	50,194
729,33	49,178
729,51	51,179
729,69	51,826
729,87	51,032
730,06	51,739
730,24	50,868
730,42	54,515
730,60	48,271
730,78	51,034
730,96	50,706
731,14	51,161
731,32	49,048
731,50	49,014
731,68	50,345
731,86	50,502
732,04	51,700
732,22	50,275
732,41	53,143
732,59	50,476
732,77	53,640
732,95	53,617
733,13	51,532
733,31	49,488
733,49	48,932
733,67	49,092
733,85	52,609
734,03	50,934
734,21	50,116
734,39	50,586
734,57	53,785
734,75	52,669
734,93	48,169
735,11	49,183
735,29	48,516
735,47	53,453
735,65	50,034
735,84	48,141
736,02	50,504
736,20	53,879
736,38	50,172
736,56	52,458
736,74	50,181
736,92	49,712
737,10	50,210
737,28	50,482
737,46	51,801
737,64	53,073
737,82	52,233
738,00	51,873
738,18	52,676
738,36	52,747
738,54	51,802
738,72	48,954
738,90	50,993
739,08	52,903
739,26	47,881
739,44	50,095
739,62	52,974
739,80	51,802
739,98	51,010
740,16	52,016
740,34	50,777
740,52	54,431
740,70	50,208
740,88	47,875
741,06	51,460
741,24	53,070
741,42	51,393
741,60	49,319
741,78	53,499
741,96	51,201
742,14	47,514
742,32	48,201
742,50	51,319
742,68	52,226
742,86	48,741
743,04	49,186
743,21	49,392
743,39	52,465
743,57	50,189
743,75	49,212
743,93	47,983
744,11	47,199
744,29	49,519
744,47	51,643
744,65	50,648
744,83	49,355
745,01	48,706
745,19	51,927
745,37	52,824
745,55	52,712
745,73	51,026
745,91	50,512
746,09	50,501
746,27	50,143
746,45	46,136
746,62	49,422
746,80	46,962
746,98	50,869
747,16	47,808
747,34	50,501
747,52	48,370
747,70	51,154
747,88	50,620
748,06	49,176
748,24	51,679
748,42	51,101
748,60	49,278
748,78	48,263
748,95	50,368
749,13	54,709
749,31	50,876
749,49	50,846
749,67	53,044
749,85	51,899
750,03	48,618
750,21	49,976
750,39	50,883
750,57	51,833
750,74	50,788
750,92	48,554
751,10	52,238
751,28	48,973
751,46	49,845
751,64	50,938
751,82	51,553
752,00	52,951
752,17	49,660
752,35	49,442
752,53	50,784
752,71	49,603
752,89	51,394
753,07	49,267
753,25	52,131
753,43	50,157
753,60	52,753
753,78	49,464
753,96	51,804
754,14	50,683
754,32	50,585
754,50	51,985
754,68	52,182
754,85	52,174
755,03	52,094
755,21	50,289
755,39	54,878
755,57	51,631
755,75	50,125
755,92	49,859
756,10	53,277
756,28	51,804
756,46	48,900
756,64	49,698
756,82	51,408
756,99	53,018
757,17	49,524
757,35	48,371
757,53	52,798
757,71	53,627
757,89	49,398
758,06	50,158
758,24	52,032
758,42	50,403
758,60	50,368
758,78	49,698
758,95	52,044
759,13	52,903
759,31	50,761
759,49	47,806
759,67	52,340
759,84	50,960
760,02	50,821
760,20	48,626
760,38	51,808
760,56	50,066
760,73	50,550
760,91	52,828
761,09	53,537
761,27	50,720
761,45	51,118
761,62	48,283
761,80	51,385
761,98	53,149
762,16	49,961
762,33	50,536
762,51	54,617
762,69	50,709
762,87	50,868
763,05	53,027
763,22	50,922
763,40	50,100
763,58	48,648
763,76	49,244
763,93	52,562
764,11	52,191
764,29	50,279
764,47	52,778
764,64	52,922
764,82	55,586
765,00	49,338
765,18	48,327
765,35	50,599
765,53	51,981
765,71	52,148
765,89	49,660
766,06	50,170
766,24	51,701
766,42	52,677
766,60	50,036
766,77	51,103
766,95	50,482
767,13	51,210
767,30	50,408
767,48	52,073
767,66	50,840
767,84	49,803
768,01	47,848
768,19	51,581
768,37	50,386
768,54	48,783
768,72	50,709
768,90	51,586
769,08	50,154
769,25	50,984
769,43	49,648
769,61	49,764
769,78	51,252
769,96	49,625
770,14	52,929
770,31	53,836
770,49	54,028
770,67	49,947
770,85	48,927
771,02	52,636
771,20	50,578
771,38	52,290
771,55	50,020
771,73	51,318
771,91	50,483
772,08	52,611
772,26	51,502
772,44	49,659
772,61	51,628
772,79	49,850
772,97	49,291
773,14	50,170
773,32	52,630
773,50	49,485
773,67	49,522
773,85	53,890
774,03	52,531
774,20	49,861
774,38	49,991
774,56	51,624
774,73	50,871
774,91	50,912
775,09	50,255
775,26	53,580
775,44	52,028
775,61	52,746
775,79	50,279
775,97	53,489
776,14	50,228
776,32	49,467
776,50	50,643
776,67	52,049
776,85	51,246
777,03	48,802
777,20	49,625
777,38	53,755
777,55	52,288
777,73	48,982
777,91	50,769
778,08	48,335
778,26	48,229
778,43	52,059
778,61	46,671
778,79	50,180
778,96	49,720
779,14	51,358
779,32	51,130
779,49	50,814
779,67	53,601
779,84	50,957
780,02	51,806
780,20	48,944
780,37	54,168
780,55	48,601
780,72	52,554
780,90	52,534
781,07	52,401
781,25	49,685
781,43	50,486
781,60	50,753
781,78	50,033
781,95	50,107
782,13	52,374
782,30	51,506
782,48	51,865
782,66	50,832
782,83	49,905
783,01	57,907
783,18	50,805
783,36	50,397
783,53	53,647
783,71	50,012
783,89	50,651
784,06	52,157
784,24	51,034
784,41	54,055
784,59	50,803
784,76	51,871
784,94	51,868
785,11	50,845
785,29	48,370
785,46	51,492
785,64	50,540
785,82	51,171
785,99	53,516
786,17	50,001
786,34	52,479
786,52	54,072
786,69	53,269
786,87	50,569
787,04	47,972
787,22	48,033
787,39	54,054
787,57	54,156
787,74	50,779
787,92	54,839
788,09	53,549
788,27	50,454
788,44	50,237
788,62	53,674
788,79	52,771
788,97	54,005
789,14	51,752
789,32	53,273
789,49	53,873
789,67	50,082
789,84	54,609
790,02	52,475
790,19	52,543
790,37	51,226
790,54	51,251
790,72	60,724
790,89	54,601
791,07	54,517
791,24	51,489
791,42	52,540
791,59	54,065
791,77	53,943
791,94	49,360
792,12	53,018
792,29	55,411
792,47	51,290
792,64	56,647
792,81	53,039
792,99	52,053
793,16	53,279
793,34	53,273
793,51	53,851
793,69	55,883
793,86	51,068
794,04	52,028
794,21	54,553
794,39	51,494
794,56	50,157
794,73	52,501
794,91	58,263
795,08	51,628
795,26	51,362
795,43	53,059
795,61	55,735
795,78	53,786
795,95	54,735
796,13	53,963
796,30	52,557
796,48	51,123
796,65	52,891
796,83	52,182
797,00	57,492
797,17	49,807
797,35	54,409
797,52	56,051
797,70	56,549
797,87	54,327
798,04	46,658
798,22	47,748
798,39	51,816
798,57	54,333
798,74	52,417
798,91	52,271
799,09	53,021
799,26	53,226
799,44	52,073
799,61	49,867
799,78	51,295
799,96	54,015
800,13	49,959
800,31	52,960
800,48	58,719
800,65	54,541
800,83	48,757
801,00	49,114
801,17	54,736
801,35	53,667
801,52	53,597
801,70	52,739
801,87	50,122
802,04	56,634
802,22	51,720
802,39	51,591
802,56	56,248
802,74	55,729
802,91	54,245
803,08	52,099
803,26	51,940
803,43	57,752
803,61	55,820
803,78	52,791
803,95	56,945
804,13	57,034
804,30	52,336
804,47	54,027
804,65	55,261
804,82	54,835
804,99	52,734
805,17	51,969
805,34	60,696
805,51	60,797
805,69	53,794
805,86	53,241
806,03	56,456
806,21	59,241
806,38	52,798
806,55	56,588
806,72	56,594
806,90	57,866
807,07	52,962
807,24	53,517
807,42	52,630
807,59	55,845
807,76	48,725
807,94	53,220
808,11	60,716
808,28	58,791
808,45	54,039
808,63	54,724
808,80	61,819
808,97	54,905
809,15	48,894
809,32	58,649
809,49	51,996
809,67	54,230
809,84	57,992
810,01	56,150
810,18	62,799
810,36	59,737
810,53	57,696
810,70	54,165
810,87	57,128
811,05	56,835
811,22	56,578
811,39	55,470
811,57	58,928
811,74	55,480
811,91	53,418
812,08	57,309
812,26	57,075
812,43	54,012
812,60	54,630
812,77	50,614
812,95	57,495
813,12	57,710
813,29	49,887
813,46	55,390
813,64	57,600
813,81	56,851
813,98	55,277
814,15	54,008
814,32	60,350
814,50	60,889
814,67	59,099
814,84	57,556
815,01	55,915
815,19	49,662
815,36	50,138
815,53	54,276
815,70	52,038
815,87	58,597
816,05	50,132
816,22	52,681
816,39	60,963
816,56	61,951
816,74	57,823
816,91	57,436
817,08	63,834
817,25	59,542
817,42	56,881
817,60	54,102
817,77	55,650
817,94	55,696
818,11	55,991
818,28	53,876
818,45	62,773
818,63	56,492
818,80	53,105
818,97	57,662
819,14	64,367
819,31	62,040
819,49	59,416
819,66	52,938
819,83	59,367
820,00	56,394
820,17	52,709
820,34	56,865
820,52	63,303
820,69	60,763
820,86	55,611
821,03	54,531
821,20	64,010
821,37	64,032
821,55	49,296
821,72	55,783
821,89	57,838
822,06	66,270
822,23	55,975
822,40	54,894
822,57	54,015
822,75	64,449
822,92	50,566
823,09	57,198
823,26	61,794
823,43	66,031
823,60	53,117
823,77	53,637
823,94	69,070
824,12	68,838
824,29	55,868
824,46	50,388
824,63	65,530
824,80	62,730
824,97	58,758
825,14	58,649
825,31	65,308
825,49	59,006
825,66	52,569
825,83	52,739
826,00	59,690
826,17	66,476
826,34	60,266
826,51	57,436
826,68	52,383
826,85	58,555
827,02	56,263
827,20	49,124
827,37	57,869
827,54	61,643
827,71	60,626
827,88	60,039
828,05	63,575
828,22	64,567
828,39	60,677
828,56	59,199
828,73	60,539
828,90	61,604
829,07	56,435
829,25	61,666
829,42	61,673
829,59	55,588
829,76	56,832
829,93	53,801
830,10	66,168
830,27	54,903
830,44	61,279
830,61	59,868
830,78	71,693
830,95	60,163
831,12	50,721
831,29	56,111
831,46	56,571
831,63	52,450
831,80	50,948
831,97	50,700
832,14	64,861
832,31	67,846
832,48	56,422
832,65	66,964
832,83	65,263
833,00	63,660
833,17	57,431
833,34	56,891
833,51	68,142
833,68	70,030
833,85	57,395
834,02	58,693
834,19	62,505
834,36	61,126
834,53	49,595
834,70	59,425
834,87	72,691
835,04	58,679
835,21	52,164
835,38	62,537
835,55	61,327
835,72	72,725
835,89	53,928
836,06	61,263
836,23	72,352
836,40	51,026
836,57	54,572
836,74	62,786
836,91	67,779
837,08	73,539
837,25	61,637
837,42	49,503
837,59	59,851
837,76	60,151
837,93	56,772
838,09	58,205
838,26	64,951
838,43	72,089
838,60	59,149
838,77	50,368
838,94	64,793
839,11	60,333
839,28	57,684
839,45	54,416
839,62	65,751
839,79	59,859
839,96	63,405
840,13	62,541
840,30	53,245
840,47	54,571
840,64	64,868
840,81	62,959
840,98	58,032
841,15	70,084
841,32	46,507
841,48	66,803
841,65	69,174
841,82	60,121
841,99	61,530
842,16	59,359
842,33	65,215
842,50	73,581
842,67	63,527
842,84	61,745
843,01	67,230
843,18	63,438
843,35	62,270
843,52	55,682
843,68	63,459
843,85	67,203
844,02	55,976
844,19	61,169
844,36	71,752
844,53	75,543
844,70	66,853
844,87	71,680
845,04	69,606
845,21	54,143
845,37	75,393
845,54	63,275
845,71	68,533
845,88	91,626
846,05	60,260
846,22	50,006
846,39	64,866
846,56	74,599
846,72	52,012
846,89	59,575
847,06	85,568
847,23	74,482
847,40	53,195
847,57	52,360
847,74	65,517
847,90	78,297
848,07	64,384
848,24	68,190
848,41	68,992
848,58	77,200
848,75	62,853
848,92	58,720
849,08	67,995
849,25	72,215
849,42	51,879
849,59	59,864
849,76	56,473
849,93	73,907
850,09	62,816
850,26	56,273
850,43	84,470
850,60	65,208
850,77	55,295
850,94	64,346
851,10	78,814
851,27	60,265
851,44	52,505
851,61	56,741
851,78	80,756
851,95	75,855
852,11	59,312
852,28	54,648
852,45	82,116
852,62	72,831
852,79	64,963
852,95	52,178
853,12	86,440
853,29	63,640
853,46	66,971
853,63	71,274
853,79	65,982
853,96	64,054
854,13	77,519
854,30	57,931
854,46	88,327
854,63	74,400
854,80	51,710
854,97	58,035
855,14	84,766
855,30	75,285
855,47	57,390
855,64	72,892
855,81	67,990
855,97	86,315
856,14	63,103
856,31	58,858
856,48	87,399
856,65	88,857
856,81	68,472
856,98	58,564
857,15	76,585
857,32	73,130
857,48	75,535
857,65	72,865
857,82	71,858
857,99	73,795
858,15	81,063
858,32	67,282
858,49	71,311
858,65	93,694
858,82	68,578
858,99	57,459
859,16	87,113
859,32	80,823
859,49	68,147
859,66	71,921
859,83	72,928
859,99	64,454
860,16	73,215
860,33	61,764
860,49	75,092
860,66	82,618
860,83	67,168
861,00	66,495
861,16	78,501
861,33	78,622
861,50	55,729
861,66	57,856
861,83	83,609
862,00	67,824
862,16	72,808
862,33	74,782
862,50	116,917
862,67	87,797
862,83	60,780
863,00	71,285
863,17	105,808
863,33	65,742
863,50	42,587
863,67	60,654
863,83	86,506
864,00	94,734
864,17	54,390
864,33	71,452
864,50	85,345
864,67	86,647
864,83	64,493
865,00	59,554
865,17	63,586
865,33	91,319
865,50	59,334
865,67	58,013
865,83	83,214
866,00	115,109
866,17	89,660
866,33	83,458
866,50	96,850
866,66	82,500
866,83	92,148
867,00	84,437
867,16	115,215
867,33	126,320
867,50	51,956
867,66	57,264
867,83	92,957
868,00	92,074
868,16	54,171
868,33	63,543
868,49	74,853
868,66	90,174
868,83	72,250
868,99	78,798
869,16	113,057
869,32	130,474
869,49	75,333
869,66	66,734
869,82	114,298
869,99	111,276
870,15	66,487
870,32	88,435
870,49	114,422
870,65	150,398
870,82	90,046
870,98	85,065
871,15	141,560
871,32	92,124
871,48	44,187
871,65	62,307
871,81	104,391
871,98	81,584
872,15	74,678
872,31	59,228
872,48	139,653
872,64	91,762
872,81	44,886
872,97	70,323
873,14	121,099
873,31	100,692
873,47	109,218
873,64	79,086
873,80	134,865
873,97	147,664
874,13	51,136
874,30	86,103
874,46	96,841
874,63	80,274
874,80	86,356
874,96	26,196
875,13	143,098
875,29	96,608
875,46	107,293
875,62	68,989
875,79	141,019
875,95	79,748
876,12	68,885
876,28	32,318
876,45	133,530
876,61	106,274
876,78	72,021
876,94	67,788
877,11	121,058
877,27	118,107
877,44	125,661
877,60	68,892
877,77	152,058
877,94	133,791
878,10	91,422
878,27	96,865
878,43	146,393
878,60	68,758
878,76	90,003
878,93	72,196
879,09	156,539
879,26	160,626
879,42	132,007
879,58	115,545
879,75	170,989
879,91	138,481
880,08	30,773
880,24	59,155
880,41	108,910
880,57	107,821
880,74	43,725
880,90	145,812
881,07	82,571
881,23	123,983
881,40	91,625
881,56	110,122
881,73	150,041
881,89	116,859
882,06	95,828
882,22	200,493
882,38	208,893
882,55	261,409
882,71	133,147
882,88	80,564
883,04	149,169
883,21	254,198
883,37	116,791
883,54	131,934
883,70	240,366
883,86	159,952
884,03	100,249
884,19	52,597
884,36	192,608
884,52	318,302
884,69	136,442
884,85	68,303
885,01	320,287
885,18	135,161
885,34	222,647
885,51	4,468
885,67	126,323
>>>>> Data<<<<< Espectral Procesado Extremo
