Fichero De Datos De SpectraSuite
++++++++++++++++++++++++++++++++++++
Fecha: Wed Apr 22 13:24:37 CEST 2009
Usuario: evoflor
Presente Oscuro Del Espectro: Sí
La Referencia de Presente Del Espectro De: Sí
Muestreados de los componentes de Número de espectros: 1
Espectrómetros: USB4F02353
Tiempo de integración (usec): 500000 (USB4F02353)
Promedio de Espectros Hechos un: 5 (USB4F02353)
El Alisar Del Furgón: 0 (USB4F02353)
Párrafo de de Corregir del la del del de Eléctrica del obscuridad: Sí (USB4F02353)
Estrobo/Lámpara Permitido: No (USB4F02353)
Correct for Detector Non-linearity: No (USB4F02353)
Párrafo de de Corregir del la del del de Externa del luz: No (USB4F02353)
Procesado del espectro de Número de pixeles en: 3648
>>>>> Comienza Data<<<<< Espectral Procesado Del EL
177,79	252,023
178,00	252,023
178,22	252,023
178,44	2313,681
178,66	-214,708
178,88	413,176
179,09	-333,426
179,31	219,226
179,53	749,706
179,75	162,816
179,96	915,991
180,18	-592,785
180,40	475,971
180,62	553,992
180,83	-494,401
181,05	-2239,695
181,27	-63955,000
181,49	-54,902
181,70	450,212
181,92	1064,746
182,14	835,105
182,36	146,166
182,58	-198,550
182,79	1133,281
183,01	-150,306
183,23	134,948
183,45	-315,862
183,66	-99,801
183,88	572,088
184,10	-3633,727
184,32	332,067
184,53	271,900
184,75	-293,122
184,97	32,722
185,18	-319,840
185,40	-588,726
185,62	155,260
185,84	178,941
186,05	180,374
186,27	-256,418
186,49	4155,962
186,71	-22,806
186,92	231,868
187,14	-319,099
187,36	176,395
187,58	38,561
187,79	-6,922
188,01	406,267
188,23	-202,145
188,45	91,069
188,66	241,317
188,88	-3306,455
189,10	-1674,550
189,31	-170,572
189,53	175,830
189,75	407,170
189,97	664,827
190,18	235,858
190,40	847,382
190,62	-337,922
190,83	-324,037
191,05	224,730
191,27	103,014
191,49	387,760
191,70	-774,784
191,92	-1091,144
192,14	-77,580
192,35	718,714
192,57	5118,714
192,79	133,094
193,01	209,215
193,22	130,271
193,44	-156,749
193,66	132,374
193,87	113,822
194,09	-35,316
194,31	217,343
194,53	944,441
194,74	-14,427
194,96	147,385
195,18	215,780
195,39	-304,103
195,61	-142,069
195,83	-252,511
196,04	187,587
196,26	-63,593
196,48	-11,291
196,70	372,276
196,91	32,368
197,13	41,152
197,35	-80,346
197,56	752,492
197,78	2156,381
198,00	440,944
198,21	410,947
198,43	-994,506
198,65	120,169
198,86	524,658
199,08	97,557
199,30	320,759
199,51	-478,029
199,73	192,660
199,95	548,156
200,16	668,288
200,38	199,030
200,60	259,422
200,81	416,392
201,03	308,302
201,25	-1971,550
201,46	240,639
201,68	45,009
201,90	3539,886
202,11	-463,950
202,33	299,022
202,55	146,937
202,76	-33,015
202,98	109,948
203,20	-121,418
203,41	-227,658
203,63	167,230
203,85	-102655,000
204,06	104,536
204,28	-156,277
204,50	124,737
204,71	432,606
204,93	-345,160
205,15	24,563
205,36	-339,111
205,58	203,944
205,80	-96,699
206,01	24,495
206,23	192,220
206,45	283,945
206,66	200,210
206,88	-93,874
207,10	364,216
207,31	275,437
207,53	85,014
207,75	6,525
207,96	1256,381
208,18	-268,865
208,39	167,265
208,61	5221,571
208,83	-327,496
209,04	86,842
209,26	-439,885
209,48	347,227
209,69	376,056
209,91	745,118
210,13	108,788
210,34	231,126
210,56	232,553
210,77	-1956,339
210,99	149,310
211,21	4767,941
211,42	-170,883
211,64	-80,340
211,86	145,917
212,07	222,478
212,29	219,260
212,50	128,660
212,72	370,596
212,94	114,321
213,15	146,552
213,37	122,379
213,58	-207,661
213,80	126,607
214,02	10273,824
214,23	487,874
214,45	413,295
214,67	-1756,768
214,88	-202,534
215,10	-381,963
215,31	-70,622
215,53	-51,011
215,75	278,704
215,96	1744,441
216,18	26,127
216,39	169,061
216,61	485,491
216,83	398,013
217,04	1487,135
217,26	-27,492
217,47	227,564
217,69	289,383
217,91	266,611
218,12	-83755,000
218,34	163,136
218,55	558,767
218,77	83,321
218,99	145,245
219,20	-285,234
219,42	481,639
219,63	-134,446
219,85	-264,709
220,06	107,519
220,28	278,280
220,50	88,818
220,71	88,386
220,93	2836,887
221,14	-2646,550
221,36	-130,889
221,58	-93,373
221,79	189,722
222,01	1753,922
222,22	1137,204
222,44	-1020,730
222,65	188,612
222,87	422,063
223,09	151,074
223,30	86,060
223,52	172,151
223,73	191,798
223,95	62,190
224,16	284,031
224,38	273,116
224,60	144,211
224,81	357,204
225,03	112,065
225,24	121,310
225,46	143,613
225,67	18,939
225,89	34,234
226,10	778,178
226,32	1224,440
226,54	67,747
226,75	25,866
226,97	155,563
227,18	148,785
227,40	-56,553
227,61	49,235
227,83	13,917
228,04	111,332
228,26	60,654
228,47	72,481
228,69	207,926
228,91	163,610
229,12	129,164
229,34	33,567
229,55	74,862
229,77	4,605
229,98	20,915
230,20	85,722
230,41	-20,215
230,63	125,369
230,84	65,633
231,06	21,319
231,27	2,229
231,49	50,036
231,71	53,025
231,92	38,011
232,14	36,592
232,35	62,558
232,57	89,675
232,78	8,976
233,00	73,698
233,21	47,074
233,43	12,058
233,64	20,719
233,86	49,767
234,07	60,739
234,29	14,181
234,50	23,385
234,72	54,867
234,93	23,016
235,15	23,204
235,36	22,034
235,58	30,743
235,79	45,408
236,01	4,047
236,22	12,152
236,44	56,801
236,65	39,689
236,87	19,060
237,08	4,009
237,30	-13,089
237,51	25,451
237,73	-7,097
237,94	15,631
238,16	17,735
238,37	23,118
238,59	23,668
238,80	9,575
239,02	19,303
239,23	28,722
239,45	-4,511
239,66	26,731
239,88	41,523
240,09	22,671
240,31	0,754
240,52	14,088
240,74	25,199
240,95	19,255
241,17	6,776
241,38	8,879
241,60	16,611
241,81	29,781
242,03	4,918
242,24	12,083
242,46	19,263
242,67	-0,074
242,89	13,329
243,10	19,309
243,32	21,084
243,53	21,233
243,75	10,733
243,96	8,549
244,18	8,957
244,39	15,413
244,60	14,571
244,82	7,040
245,03	22,971
245,25	14,137
245,46	29,233
245,68	8,668
245,89	17,507
246,11	14,041
246,32	9,282
246,54	3,823
246,75	12,389
246,97	17,899
247,18	26,624
247,39	7,522
247,61	9,787
247,82	18,400
248,04	7,058
248,25	10,771
248,47	16,306
248,68	16,487
248,90	2,024
249,11	7,237
249,33	17,058
249,54	12,002
249,75	9,493
249,97	5,261
250,18	14,682
250,40	21,486
250,61	-3,937
250,83	1,719
251,04	7,382
251,25	11,236
251,47	-0,299
251,68	9,550
251,90	11,467
252,11	14,369
252,33	5,784
252,54	7,631
252,76	6,685
252,97	4,527
253,18	2,481
253,40	7,223
253,61	3,756
253,83	14,667
254,04	9,308
254,25	6,471
254,47	4,559
254,68	12,713
254,90	5,196
255,11	5,815
255,33	10,962
255,54	4,555
255,75	5,148
255,97	9,569
256,18	8,281
256,40	5,756
256,61	10,518
256,82	3,028
257,04	12,299
257,25	2,868
257,47	6,793
257,68	1,811
257,89	11,684
258,11	11,259
258,32	4,309
258,54	7,711
258,75	9,523
258,96	13,254
259,18	8,005
259,39	5,630
259,61	16,788
259,82	6,800
260,03	10,070
260,25	6,033
260,46	8,012
260,68	8,093
260,89	4,323
261,10	7,736
261,32	5,527
261,53	5,740
261,75	9,671
261,96	-1,037
262,17	12,003
262,39	12,153
262,60	4,519
262,81	-0,081
263,03	11,831
263,24	10,179
263,46	2,873
263,67	1,992
263,88	6,827
264,10	9,142
264,31	4,026
264,52	8,973
264,74	9,090
264,95	5,162
265,17	8,497
265,38	4,893
265,59	13,998
265,81	8,838
266,02	-0,037
266,23	2,841
266,45	13,144
266,66	11,931
266,87	6,728
267,09	5,770
267,30	12,568
267,52	12,593
267,73	6,165
267,94	10,783
268,16	10,003
268,37	1,651
268,58	7,535
268,80	5,402
269,01	6,085
269,22	8,964
269,44	7,712
269,65	7,742
269,86	6,200
270,08	8,920
270,29	5,302
270,50	4,137
270,72	9,947
270,93	6,127
271,14	6,869
271,36	2,130
271,57	4,414
271,78	7,773
272,00	5,251
272,21	7,745
272,42	8,390
272,64	11,033
272,85	3,118
273,06	2,611
273,28	10,963
273,49	11,162
273,70	10,529
273,92	6,470
274,13	9,264
274,34	3,403
274,56	7,327
274,77	3,812
274,98	11,324
275,20	8,452
275,41	8,531
275,62	6,050
275,84	6,845
276,05	13,458
276,26	3,599
276,47	2,124
276,69	7,637
276,90	10,730
277,11	6,681
277,33	2,153
277,54	8,356
277,75	5,980
277,97	3,810
278,18	2,705
278,39	7,873
278,61	5,100
278,82	6,412
279,03	6,864
279,24	7,532
279,46	7,183
279,67	11,453
279,88	5,924
280,10	9,946
280,31	3,532
280,52	5,280
280,73	2,243
280,95	11,028
281,16	12,042
281,37	5,526
281,59	8,470
281,80	12,927
282,01	3,485
282,22	5,298
282,44	2,534
282,65	16,020
282,86	9,309
283,08	5,630
283,29	3,909
283,50	5,232
283,71	7,031
283,93	5,349
284,14	10,472
284,35	4,856
284,56	7,436
284,78	4,283
284,99	9,206
285,20	11,385
285,42	5,137
285,63	6,681
285,84	3,387
286,05	4,626
286,27	4,294
286,48	4,345
286,69	6,725
286,90	3,488
287,12	4,790
287,33	3,567
287,54	5,757
287,75	8,385
287,97	5,626
288,18	5,932
288,39	2,404
288,60	9,621
288,82	6,345
289,03	4,248
289,24	5,011
289,45	8,019
289,67	7,785
289,88	0,456
290,09	6,833
290,30	7,152
290,52	6,638
290,73	5,224
290,94	2,090
291,15	5,927
291,37	7,429
291,58	5,006
291,79	3,258
292,00	7,916
292,21	7,257
292,43	4,379
292,64	1,514
292,85	5,010
293,06	6,878
293,28	5,338
293,49	3,274
293,70	9,693
293,91	3,413
294,12	5,554
294,34	5,958
294,55	7,619
294,76	5,714
294,97	7,616
295,19	2,337
295,40	7,875
295,61	6,234
295,82	1,368
296,03	4,389
296,25	6,306
296,46	3,223
296,67	0,883
296,88	2,583
297,09	7,373
297,31	7,215
297,52	7,172
297,73	4,297
297,94	11,336
298,15	7,432
298,37	3,033
298,58	6,461
298,79	7,525
299,00	4,690
299,21	4,239
299,43	4,086
299,64	10,889
299,85	5,071
300,06	4,318
300,27	3,526
300,49	9,955
300,70	7,146
300,91	4,806
301,12	2,786
301,33	9,867
301,54	5,288
301,76	4,664
301,97	3,763
302,18	2,837
302,39	8,497
302,60	13,717
302,82	3,464
303,03	9,156
303,24	5,302
303,45	5,795
303,66	5,414
303,87	3,321
304,09	8,923
304,30	1,703
304,51	6,676
304,72	5,205
304,93	5,162
305,14	6,293
305,36	1,978
305,57	2,913
305,78	7,865
305,99	3,503
306,20	7,343
306,41	3,882
306,62	3,061
306,84	2,297
307,05	1,323
307,26	5,636
307,47	10,240
307,68	4,399
307,89	4,202
308,11	6,313
308,32	4,291
308,53	4,211
308,74	2,340
308,95	6,238
309,16	7,816
309,37	10,037
309,59	3,399
309,80	7,721
310,01	5,453
310,22	6,659
310,43	2,523
310,64	8,070
310,85	4,916
311,06	3,290
311,28	5,843
311,49	4,189
311,70	8,682
311,91	2,238
312,12	5,759
312,33	5,164
312,54	7,136
312,75	4,684
312,97	2,698
313,18	4,601
313,39	4,773
313,60	5,255
313,81	3,589
314,02	7,034
314,23	7,560
314,44	1,255
314,65	1,210
314,87	6,120
315,08	3,172
315,29	8,848
315,50	8,086
315,71	6,214
315,92	9,542
316,13	6,296
316,34	2,754
316,55	7,089
316,77	0,153
316,98	4,251
317,19	5,802
317,40	7,638
317,61	10,664
317,82	5,322
318,03	5,289
318,24	4,836
318,45	8,038
318,66	5,372
318,87	2,103
319,09	8,768
319,30	8,089
319,51	6,195
319,72	8,422
319,93	8,905
320,14	7,736
320,35	4,872
320,56	4,644
320,77	2,516
320,98	10,890
321,19	5,560
321,40	5,176
321,62	7,596
321,83	4,657
322,04	5,350
322,25	3,706
322,46	11,343
322,67	8,188
322,88	6,305
323,09	2,540
323,30	8,005
323,51	9,644
323,72	6,581
323,93	2,399
324,14	5,148
324,35	2,811
324,56	2,251
324,77	4,161
324,99	4,116
325,20	1,191
325,41	6,670
325,62	6,438
325,83	2,762
326,04	5,210
326,25	7,109
326,46	2,022
326,67	6,495
326,88	7,395
327,09	3,714
327,30	3,256
327,51	5,835
327,72	7,860
327,93	9,155
328,14	1,314
328,35	7,157
328,56	6,530
328,77	4,562
328,98	9,556
329,19	7,143
329,40	8,363
329,61	5,144
329,82	3,254
330,04	4,931
330,25	5,600
330,46	6,923
330,67	3,909
330,88	6,081
331,09	4,450
331,30	6,182
331,51	5,799
331,72	8,041
331,93	5,622
332,14	3,602
332,35	6,411
332,56	6,363
332,77	5,971
332,98	2,602
333,19	4,102
333,40	4,708
333,61	5,264
333,82	8,170
334,03	4,645
334,24	9,033
334,45	5,498
334,66	7,559
334,87	5,463
335,08	2,413
335,29	2,917
335,50	3,241
335,71	2,152
335,92	8,071
336,13	8,067
336,34	1,988
336,55	7,531
336,76	8,519
336,97	5,106
337,18	3,851
337,39	4,704
337,60	6,286
337,81	7,472
338,02	5,999
338,23	5,497
338,44	6,777
338,65	5,769
338,86	6,944
339,07	3,781
339,28	6,838
339,49	6,124
339,70	5,374
339,91	5,304
340,11	11,471
340,32	3,258
340,53	3,351
340,74	3,451
340,95	4,565
341,16	8,412
341,37	5,707
341,58	2,493
341,79	4,643
342,00	5,485
342,21	5,745
342,42	4,600
342,63	8,313
342,84	2,464
343,05	5,262
343,26	6,058
343,47	7,230
343,68	3,414
343,89	4,744
344,10	8,878
344,31	10,289
344,52	5,489
344,73	5,212
344,94	6,299
345,14	4,799
345,35	7,538
345,56	5,969
345,77	5,165
345,98	4,391
346,19	8,205
346,40	3,640
346,61	2,872
346,82	4,564
347,03	8,448
347,24	8,387
347,45	4,874
347,66	9,950
347,87	6,626
348,08	6,993
348,28	0,715
348,49	6,052
348,70	9,621
348,91	6,726
349,12	3,196
349,33	20,841
349,54	6,187
349,75	7,045
349,96	5,955
350,17	5,748
350,38	3,597
350,59	7,157
350,80	5,278
351,00	6,569
351,21	7,123
351,42	4,462
351,63	3,946
351,84	3,908
352,05	8,314
352,26	5,466
352,47	3,710
352,68	9,543
352,89	8,643
353,09	9,638
353,30	2,861
353,51	3,477
353,72	10,014
353,93	9,529
354,14	4,316
354,35	3,848
354,56	8,464
354,77	6,338
354,98	2,065
355,18	6,261
355,39	11,138
355,60	5,112
355,81	4,285
356,02	6,681
356,23	6,056
356,44	3,540
356,65	7,628
356,85	12,020
357,06	8,400
357,27	7,765
357,48	3,660
357,69	8,136
357,90	8,224
358,11	2,788
358,32	4,268
358,52	12,154
358,73	7,890
358,94	6,495
359,15	7,583
359,36	8,525
359,57	5,494
359,78	6,819
359,98	5,136
360,19	1,508
360,40	7,229
360,61	8,481
360,82	5,449
361,03	10,703
361,24	10,443
361,44	5,295
361,65	5,361
361,86	4,362
362,07	8,487
362,28	6,671
362,49	1,736
362,70	4,741
362,90	8,886
363,11	4,867
363,32	4,193
363,53	7,509
363,74	8,569
363,95	8,853
364,15	4,156
364,36	9,967
364,57	7,608
364,78	3,152
364,99	3,899
365,20	9,217
365,40	6,228
365,61	4,426
365,82	10,061
366,03	10,853
366,24	9,834
366,45	4,876
366,65	5,296
366,86	6,277
367,07	7,769
367,28	6,579
367,49	6,178
367,69	9,655
367,90	7,915
368,11	5,989
368,32	4,250
368,53	10,091
368,73	8,797
368,94	5,043
369,15	6,862
369,36	6,798
369,57	6,618
369,78	3,936
369,98	8,079
370,19	12,337
370,40	5,702
370,61	8,299
370,82	3,041
371,02	9,760
371,23	9,385
371,44	4,042
371,65	5,965
371,85	8,483
372,06	3,533
372,27	6,129
372,48	3,868
372,69	7,415
372,89	4,955
373,10	4,839
373,31	6,993
373,52	6,282
373,73	8,302
373,93	4,339
374,14	5,827
374,35	7,847
374,56	10,589
374,76	7,387
374,97	7,514
375,18	11,442
375,39	8,604
375,60	9,827
375,80	7,309
376,01	6,533
376,22	8,575
376,43	6,049
376,63	5,355
376,84	7,161
377,05	9,525
377,26	7,326
377,46	5,514
377,67	4,941
377,88	10,463
378,09	8,806
378,29	4,685
378,50	6,348
378,71	9,374
378,92	4,709
379,12	8,638
379,33	6,481
379,54	8,315
379,75	8,252
379,95	4,444
380,16	8,637
380,37	11,725
380,58	7,745
380,78	11,587
380,99	4,445
381,20	6,542
381,41	7,443
381,61	8,155
381,82	9,887
382,03	9,515
382,24	11,569
382,44	10,107
382,65	10,079
382,86	11,007
383,06	7,559
383,27	9,290
383,48	9,685
383,69	9,902
383,89	6,999
384,10	8,798
384,31	10,923
384,51	13,869
384,72	7,207
384,93	9,933
385,14	8,349
385,34	8,985
385,55	9,331
385,76	8,316
385,96	13,095
386,17	9,804
386,38	10,635
386,59	11,530
386,79	10,957
387,00	16,065
387,21	14,288
387,41	12,719
387,62	10,505
387,83	16,311
388,03	12,617
388,24	4,832
388,45	11,186
388,66	13,183
388,86	11,848
389,07	6,026
389,28	17,265
389,48	16,215
389,69	11,146
389,90	13,965
390,10	13,752
390,31	15,600
390,52	8,698
390,72	10,932
390,93	14,785
391,14	12,657
391,34	12,494
391,55	15,063
391,76	17,552
391,96	15,734
392,17	11,064
392,38	11,717
392,58	16,755
392,79	16,873
393,00	10,350
393,20	12,216
393,41	16,088
393,62	14,939
393,82	17,693
394,03	16,158
394,24	18,505
394,44	19,360
394,65	17,951
394,86	14,118
395,06	21,156
395,27	16,030
395,48	17,945
395,68	21,693
395,89	19,454
396,10	20,152
396,30	15,709
396,51	14,058
396,72	19,488
396,92	17,040
397,13	19,613
397,34	17,558
397,54	23,010
397,75	17,544
397,95	14,866
398,16	19,033
398,37	20,372
398,57	17,619
398,78	20,447
398,99	24,315
399,19	24,159
399,40	25,364
399,60	18,309
399,81	26,041
400,02	23,217
400,22	24,278
400,43	19,823
400,64	23,338
400,84	18,503
401,05	25,589
401,25	25,833
401,46	24,825
401,67	24,255
401,87	21,709
402,08	21,268
402,29	23,947
402,49	31,030
402,70	27,753
402,90	19,938
403,11	23,933
403,32	24,352
403,52	21,404
403,73	24,195
403,93	26,945
404,14	28,635
404,35	26,150
404,55	25,721
404,76	24,163
404,96	26,503
405,17	29,918
405,38	29,152
405,58	26,400
405,79	31,432
405,99	27,718
406,20	27,680
406,40	25,058
406,61	31,297
406,82	28,689
407,02	28,556
407,23	28,845
407,43	27,349
407,64	27,825
407,85	28,028
408,05	22,307
408,26	38,383
408,46	35,056
408,67	27,254
408,87	29,797
409,08	30,507
409,29	35,888
409,49	33,582
409,70	35,469
409,90	38,144
410,11	32,922
410,31	34,388
410,52	33,767
410,72	31,898
410,93	36,797
411,14	33,823
411,34	31,771
411,55	36,581
411,75	39,715
411,96	35,335
412,16	36,624
412,37	35,558
412,57	34,845
412,78	34,956
412,99	35,966
413,19	34,501
413,40	31,119
413,60	30,998
413,81	31,476
414,01	35,074
414,22	34,845
414,42	37,527
414,63	31,940
414,83	38,487
415,04	42,516
415,24	37,379
415,45	35,223
415,65	36,027
415,86	37,850
416,07	33,873
416,27	36,298
416,48	38,197
416,68	40,304
416,89	31,858
417,09	38,380
417,30	43,939
417,50	37,481
417,71	39,274
417,91	38,612
418,12	37,736
418,32	39,446
418,53	37,882
418,73	40,384
418,94	37,648
419,14	39,282
419,35	33,397
419,55	39,496
419,76	40,982
419,96	37,504
420,17	36,304
420,37	39,990
420,58	40,366
420,78	39,909
420,99	38,054
421,19	38,885
421,40	42,121
421,60	45,400
421,81	36,425
422,01	41,964
422,22	37,029
422,42	42,439
422,63	40,761
422,83	40,380
423,04	44,762
423,24	47,300
423,45	35,728
423,65	42,122
423,86	45,907
424,06	43,749
424,27	36,059
424,47	38,632
424,67	42,264
424,88	42,157
425,08	40,138
425,29	42,777
425,49	39,235
425,70	38,522
425,90	40,244
426,11	38,618
426,31	41,445
426,52	41,793
426,72	42,798
426,93	39,967
427,13	43,657
427,33	36,421
427,54	44,390
427,74	44,354
427,95	45,175
428,15	37,168
428,36	41,516
428,56	41,698
428,77	39,732
428,97	41,335
429,18	42,836
429,38	40,359
429,58	44,947
429,79	42,890
429,99	38,821
430,20	37,400
430,40	42,342
430,61	41,283
430,81	41,639
431,01	39,055
431,22	42,321
431,42	42,870
431,63	40,092
431,83	37,582
432,04	45,198
432,24	44,597
432,44	38,427
432,65	37,360
432,85	35,596
433,06	43,030
433,26	36,683
433,47	39,392
433,67	40,023
433,87	37,495
434,08	36,370
434,28	38,282
434,49	34,540
434,69	44,506
434,89	36,587
435,10	35,829
435,30	44,131
435,51	39,033
435,71	36,703
435,91	39,047
436,12	37,539
436,32	38,502
436,53	44,345
436,73	37,832
436,93	43,910
437,14	41,487
437,34	42,302
437,55	36,392
437,75	41,880
437,95	46,642
438,16	40,780
438,36	40,466
438,57	37,832
438,77	40,541
438,97	45,211
439,18	48,362
439,38	42,547
439,58	41,744
439,79	40,925
439,99	37,903
440,20	47,166
440,40	42,638
440,60	39,102
440,81	43,113
441,01	40,199
441,21	44,956
441,42	42,619
441,62	44,490
441,83	42,599
442,03	44,547
442,23	46,724
442,44	39,578
442,64	44,424
442,84	37,599
443,05	38,460
443,25	37,268
443,45	41,732
443,66	38,879
443,86	41,293
444,06	41,210
444,27	41,351
444,47	41,370
444,67	40,949
444,88	43,710
445,08	45,127
445,28	43,412
445,49	38,322
445,69	36,932
445,90	43,169
446,10	46,673
446,30	39,892
446,51	41,626
446,71	48,431
446,91	44,489
447,12	45,030
447,32	40,126
447,52	43,976
447,72	47,336
447,93	42,404
448,13	35,311
448,33	47,688
448,54	43,464
448,74	40,707
448,94	39,603
449,15	48,866
449,35	49,333
449,55	42,498
449,76	44,089
449,96	44,867
450,16	42,763
450,37	44,480
450,57	41,821
450,77	40,529
450,98	41,626
451,18	45,718
451,38	41,223
451,58	43,716
451,79	45,550
451,99	43,283
452,19	41,881
452,40	42,517
452,60	37,228
452,80	39,237
453,00	45,071
453,21	40,648
453,41	48,142
453,61	40,714
453,82	37,938
454,02	36,853
454,22	47,737
454,42	44,821
454,63	37,887
454,83	40,803
455,03	41,439
455,24	40,877
455,44	42,995
455,64	41,359
455,84	38,879
456,05	38,886
456,25	41,637
456,45	40,133
456,65	40,661
456,86	41,110
457,06	42,103
457,26	48,946
457,47	45,346
457,67	43,245
457,87	35,021
458,07	39,320
458,28	48,179
458,48	42,387
458,68	36,093
458,88	44,065
459,09	40,624
459,29	41,089
459,49	37,244
459,69	46,231
459,90	40,100
460,10	40,246
460,30	40,333
460,50	43,141
460,71	43,848
460,91	38,343
461,11	40,445
461,31	38,419
461,52	45,839
461,72	39,398
461,92	39,907
462,12	48,831
462,32	39,051
462,53	38,112
462,73	41,067
462,93	44,131
463,13	45,303
463,34	38,675
463,54	37,485
463,74	40,696
463,94	41,823
464,14	41,314
464,35	38,404
464,55	45,103
464,75	48,986
464,95	43,482
465,16	34,623
465,36	42,604
465,56	38,770
465,76	41,187
465,96	36,323
466,17	43,616
466,37	36,134
466,57	42,628
466,77	37,231
466,97	38,494
467,18	42,187
467,38	39,922
467,58	42,691
467,78	46,289
467,98	41,077
468,19	42,557
468,39	43,397
468,59	42,347
468,79	41,246
468,99	36,918
469,19	34,418
469,40	44,762
469,60	38,943
469,80	37,671
470,00	42,765
470,20	41,727
470,41	42,229
470,61	44,224
470,81	38,408
471,01	38,017
471,21	41,849
471,41	38,626
471,62	42,229
471,82	35,892
472,02	40,583
472,22	41,504
472,42	39,030
472,62	42,383
472,83	37,982
473,03	40,291
473,23	41,228
473,43	43,517
473,63	41,878
473,83	39,834
474,03	36,788
474,24	45,703
474,44	37,626
474,64	38,818
474,84	36,594
475,04	39,464
475,24	41,150
475,45	39,102
475,65	35,954
475,85	44,744
476,05	32,610
476,25	39,062
476,45	37,419
476,65	44,797
476,85	39,905
477,06	38,938
477,26	36,218
477,46	38,894
477,66	38,948
477,86	41,802
478,06	38,675
478,26	47,625
478,46	38,549
478,67	38,907
478,87	37,975
479,07	33,356
479,27	41,026
479,47	36,713
479,67	32,586
479,87	36,502
480,07	42,354
480,28	37,078
480,48	35,834
480,68	36,941
480,88	41,448
481,08	38,924
481,28	40,172
481,48	39,803
481,68	36,837
481,88	36,113
482,08	37,701
482,29	42,363
482,49	34,368
482,69	39,594
482,89	37,317
483,09	41,552
483,29	35,644
483,49	32,338
483,69	38,766
483,89	35,880
484,09	33,096
484,29	30,654
484,50	36,813
484,70	38,443
484,90	33,611
485,10	34,908
485,30	37,102
485,50	37,796
485,70	37,370
485,90	34,905
486,10	31,889
486,30	33,924
486,50	32,847
486,70	34,539
486,90	36,004
487,10	34,334
487,30	33,904
487,51	36,267
487,71	33,210
487,91	33,888
488,11	37,294
488,31	30,449
488,51	38,033
488,71	32,932
488,91	36,862
489,11	31,598
489,31	32,592
489,51	33,640
489,71	36,776
489,91	33,735
490,11	33,352
490,31	33,497
490,51	34,454
490,71	32,669
490,91	32,629
491,11	34,823
491,31	32,664
491,51	32,210
491,72	32,820
491,92	35,274
492,12	38,015
492,32	38,496
492,52	36,645
492,72	34,891
492,92	35,022
493,12	34,987
493,32	33,328
493,52	31,037
493,72	34,542
493,92	34,699
494,12	32,939
494,32	35,317
494,52	33,402
494,72	32,732
494,92	32,679
495,12	36,779
495,32	36,999
495,52	32,666
495,72	36,796
495,92	37,125
496,12	38,596
496,32	30,097
496,52	34,013
496,72	34,504
496,92	36,233
497,12	32,282
497,32	34,496
497,52	34,882
497,72	39,252
497,92	37,111
498,12	33,036
498,32	34,680
498,52	34,547
498,72	31,710
498,92	32,361
499,12	39,066
499,32	30,093
499,52	35,582
499,72	35,136
499,92	38,847
500,12	36,651
500,32	37,813
500,52	34,012
500,72	39,324
500,91	37,739
501,11	32,994
501,31	26,377
501,51	34,634
501,71	35,756
501,91	34,612
502,11	33,134
502,31	34,276
502,51	35,233
502,71	32,317
502,91	34,673
503,11	34,258
503,31	32,702
503,51	31,331
503,71	32,189
503,91	35,641
504,11	35,103
504,31	34,255
504,51	34,906
504,71	37,689
504,91	33,312
505,10	32,308
505,30	32,351
505,50	35,106
505,70	34,205
505,90	32,511
506,10	30,373
506,30	31,916
506,50	34,099
506,70	36,412
506,90	31,601
507,10	35,326
507,30	32,629
507,50	33,902
507,70	32,122
507,89	31,040
508,09	29,958
508,29	28,205
508,49	30,777
508,69	30,093
508,89	29,707
509,09	29,981
509,29	31,877
509,49	35,971
509,69	35,376
509,89	30,238
510,09	30,162
510,28	33,391
510,48	31,211
510,68	26,809
510,88	32,987
511,08	30,134
511,28	31,586
511,48	29,411
511,68	27,597
511,88	23,763
512,07	31,515
512,27	30,377
512,47	30,523
512,67	28,826
512,87	28,019
513,07	30,733
513,27	27,858
513,47	28,385
513,67	25,916
513,86	31,471
514,06	28,273
514,26	29,050
514,46	32,097
514,66	28,158
514,86	29,953
515,06	35,526
515,26	34,214
515,45	29,605
515,65	26,746
515,85	32,524
516,05	27,487
516,25	27,544
516,45	30,575
516,65	27,466
516,84	29,478
517,04	31,069
517,24	23,956
517,44	27,855
517,64	30,093
517,84	31,960
518,04	28,961
518,23	31,044
518,43	32,277
518,63	26,498
518,83	26,280
519,03	28,616
519,23	28,899
519,42	26,657
519,62	23,840
519,82	25,304
520,02	28,419
520,22	28,411
520,42	25,570
520,61	26,972
520,81	31,373
521,01	30,850
521,21	25,091
521,41	28,464
521,61	30,969
521,80	26,833
522,00	25,982
522,20	31,030
522,40	28,673
522,60	25,859
522,79	24,150
522,99	26,902
523,19	25,619
523,39	27,644
523,59	25,027
523,78	29,270
523,98	24,153
524,18	25,216
524,38	24,440
524,58	27,747
524,77	30,935
524,97	28,231
525,17	26,993
525,37	26,853
525,57	28,865
525,76	28,470
525,96	27,885
526,16	25,585
526,36	23,558
526,56	26,641
526,75	23,359
526,95	26,074
527,15	28,190
527,35	26,336
527,55	24,806
527,74	26,918
527,94	23,290
528,14	24,136
528,34	23,832
528,53	24,172
528,73	26,614
528,93	25,105
529,13	22,084
529,32	23,988
529,52	26,300
529,72	23,660
529,92	24,941
530,12	24,916
530,31	24,273
530,51	26,553
530,71	26,052
530,91	26,818
531,10	21,690
531,30	22,979
531,50	22,972
531,70	25,116
531,89	22,969
532,09	22,529
532,29	21,223
532,49	26,895
532,68	23,148
532,88	20,582
533,08	22,482
533,28	20,987
533,47	23,882
533,67	25,413
533,87	20,420
534,06	30,493
534,26	22,843
534,46	22,005
534,66	23,457
534,85	24,731
535,05	17,359
535,25	23,319
535,45	21,607
535,64	26,132
535,84	22,722
536,04	18,609
536,23	22,917
536,43	24,351
536,63	20,564
536,83	23,484
537,02	22,394
537,22	21,336
537,42	24,991
537,61	20,752
537,81	23,761
538,01	22,208
538,20	23,266
538,40	19,815
538,60	22,373
538,80	19,478
538,99	21,757
539,19	20,454
539,39	20,677
539,58	19,604
539,78	18,261
539,98	18,667
540,17	16,901
540,37	18,776
540,57	16,865
540,76	17,901
540,96	15,251
541,16	18,426
541,36	17,676
541,55	12,189
541,75	13,671
541,95	15,695
542,14	15,408
542,34	14,513
542,54	13,598
542,73	17,056
542,93	16,219
543,13	15,121
543,32	13,938
543,52	14,913
543,72	13,147
543,91	15,809
544,11	13,742
544,31	12,871
544,50	14,648
544,70	14,252
544,89	14,885
545,09	18,619
545,29	15,457
545,48	15,430
545,68	13,495
545,88	14,928
546,07	14,757
546,27	14,239
546,47	17,507
546,66	17,187
546,86	17,844
547,06	16,228
547,25	16,213
547,45	19,247
547,64	17,002
547,84	21,395
548,04	19,140
548,23	20,243
548,43	21,320
548,63	20,979
548,82	19,351
549,02	19,118
549,21	20,213
549,41	20,021
549,61	20,411
549,80	18,200
550,00	19,868
550,20	16,802
550,39	19,409
550,59	18,458
550,78	18,644
550,98	14,831
551,18	20,954
551,37	20,804
551,57	18,164
551,76	18,031
551,96	18,901
552,16	18,108
552,35	20,994
552,55	20,218
552,74	19,086
552,94	21,187
553,14	19,745
553,33	18,977
553,53	20,885
553,72	21,661
553,92	21,141
554,12	18,945
554,31	21,515
554,51	21,130
554,70	19,232
554,90	19,003
555,09	21,556
555,29	21,636
555,49	19,132
555,68	21,029
555,88	19,525
556,07	20,621
556,27	23,437
556,46	19,976
556,66	17,438
556,86	22,369
557,05	20,660
557,25	16,952
557,44	18,737
557,64	19,964
557,83	20,689
558,03	20,039
558,22	18,938
558,42	20,196
558,62	19,930
558,81	20,893
559,01	19,779
559,20	22,015
559,40	18,145
559,59	18,925
559,79	16,320
559,98	19,447
560,18	21,559
560,37	17,857
560,57	21,252
560,76	20,445
560,96	17,165
561,16	19,315
561,35	21,799
561,55	22,901
561,74	19,696
561,94	21,060
562,13	20,612
562,33	22,991
562,52	21,159
562,72	20,696
562,91	19,308
563,11	21,287
563,30	22,880
563,50	19,184
563,69	19,465
563,89	19,497
564,08	22,321
564,28	19,447
564,47	20,366
564,67	18,172
564,86	19,824
565,06	19,659
565,25	19,007
565,45	19,612
565,64	23,531
565,84	17,992
566,03	18,026
566,23	17,959
566,42	20,531
566,62	21,831
566,81	18,761
567,01	21,408
567,20	21,524
567,40	18,137
567,59	19,009
567,79	22,989
567,98	24,492
568,18	21,026
568,37	19,303
568,57	21,023
568,76	23,447
568,96	18,775
569,15	21,301
569,35	21,174
569,54	24,658
569,73	21,662
569,93	20,904
570,12	20,185
570,32	22,762
570,51	19,282
570,71	21,207
570,90	23,174
571,10	20,287
571,29	18,672
571,49	19,259
571,68	21,751
571,87	21,693
572,07	20,823
572,26	18,823
572,46	20,043
572,65	21,429
572,85	18,898
573,04	21,842
573,24	21,533
573,43	24,436
573,62	22,563
573,82	21,024
574,01	21,416
574,21	20,953
574,40	19,494
574,60	19,370
574,79	23,122
574,98	19,611
575,18	22,764
575,37	21,060
575,57	21,191
575,76	22,759
575,96	22,229
576,15	21,982
576,34	21,602
576,54	23,048
576,73	22,177
576,93	20,513
577,12	22,587
577,31	21,920
577,51	20,443
577,70	20,773
577,90	21,949
578,09	21,975
578,28	21,202
578,48	22,210
578,67	24,396
578,87	23,194
579,06	21,670
579,25	24,012
579,45	23,832
579,64	20,575
579,84	22,076
580,03	22,708
580,22	24,358
580,42	20,936
580,61	23,333
580,81	21,513
581,00	23,552
581,19	23,739
581,39	21,111
581,58	22,968
581,77	22,165
581,97	24,381
582,16	22,412
582,35	22,683
582,55	23,078
582,74	25,162
582,94	23,394
583,13	22,786
583,32	23,845
583,52	25,952
583,71	22,776
583,90	24,284
584,10	25,597
584,29	24,725
584,48	22,331
584,68	23,444
584,87	25,126
585,06	25,334
585,26	22,947
585,45	24,243
585,65	27,295
585,84	25,547
586,03	23,482
586,23	23,265
586,42	24,642
586,61	26,590
586,81	25,120
587,00	24,760
587,19	23,961
587,39	28,075
587,58	25,844
587,77	26,886
587,97	25,464
588,16	26,061
588,35	27,671
588,54	26,777
588,74	25,916
588,93	27,903
589,12	27,889
589,32	25,421
589,51	26,862
589,70	26,150
589,90	25,553
590,09	24,787
590,28	31,251
590,48	26,204
590,67	27,295
590,86	28,601
591,06	29,016
591,25	29,885
591,44	30,220
591,63	28,205
591,83	29,265
592,02	30,124
592,21	28,408
592,41	27,504
592,60	29,842
592,79	29,884
592,98	30,197
593,18	29,577
593,37	29,194
593,56	30,372
593,76	31,148
593,95	30,031
594,14	30,090
594,33	32,525
594,53	29,911
594,72	29,201
594,91	34,563
595,10	32,275
595,30	30,111
595,49	31,020
595,68	32,827
595,88	30,278
596,07	31,192
596,26	32,405
596,45	32,555
596,65	28,878
596,84	32,702
597,03	32,424
597,22	34,040
597,42	35,121
597,61	32,548
597,80	32,898
597,99	33,628
598,19	35,586
598,38	33,252
598,57	33,156
598,76	34,798
598,95	36,258
599,15	34,059
599,34	33,291
599,53	34,033
599,72	33,970
599,92	35,564
600,11	34,788
600,30	35,054
600,49	37,663
600,69	33,624
600,88	35,042
601,07	36,360
601,26	36,189
601,45	36,856
601,65	34,984
601,84	37,117
602,03	36,734
602,22	36,952
602,42	37,374
602,61	35,470
602,80	37,722
602,99	38,211
603,18	35,297
603,38	37,488
603,57	36,289
603,76	35,111
603,95	35,790
604,14	38,642
604,34	38,379
604,53	37,283
604,72	36,855
604,91	37,525
605,10	38,629
605,29	36,688
605,49	36,377
605,68	37,835
605,87	39,079
606,06	38,792
606,25	36,377
606,45	39,236
606,64	36,984
606,83	37,928
607,02	37,955
607,21	39,026
607,40	38,156
607,60	35,361
607,79	34,854
607,98	35,709
608,17	34,735
608,36	36,155
608,55	37,049
608,75	36,270
608,94	36,179
609,13	32,856
609,32	32,008
609,51	33,277
609,70	31,940
609,89	32,973
610,09	31,341
610,28	35,151
610,47	31,634
610,66	31,245
610,85	30,133
611,04	33,721
611,23	31,483
611,43	32,004
611,62	31,299
611,81	31,062
612,00	33,113
612,19	30,734
612,38	32,186
612,57	34,818
612,77	33,901
612,96	34,083
613,15	34,317
613,34	38,623
613,53	36,450
613,72	37,689
613,91	36,504
614,10	36,224
614,29	37,587
614,49	37,006
614,68	37,389
614,87	39,320
615,06	42,513
615,25	36,784
615,44	40,086
615,63	37,759
615,82	38,162
616,01	38,634
616,21	38,689
616,40	41,452
616,59	41,371
616,78	40,887
616,97	40,864
617,16	40,747
617,35	41,943
617,54	40,373
617,73	40,627
617,92	40,119
618,11	42,598
618,31	38,028
618,50	41,046
618,69	40,310
618,88	39,776
619,07	39,277
619,26	41,157
619,45	39,950
619,64	39,723
619,83	39,325
620,02	39,333
620,21	44,160
620,40	42,185
620,59	39,802
620,78	39,475
620,97	40,596
621,17	43,126
621,36	42,223
621,55	40,999
621,74	41,494
621,93	41,571
622,12	42,335
622,31	41,293
622,50	41,586
622,69	43,735
622,88	42,486
623,07	42,373
623,26	43,221
623,45	45,317
623,64	42,155
623,83	39,443
624,02	46,430
624,21	45,595
624,40	43,893
624,59	40,959
624,78	44,895
624,97	45,603
625,16	39,931
625,35	39,454
625,54	42,998
625,73	42,579
625,92	44,241
626,12	44,209
626,31	45,105
626,50	43,442
626,69	44,259
626,88	41,010
627,07	45,284
627,26	43,715
627,45	42,836
627,64	42,628
627,83	44,409
628,02	42,018
628,21	41,868
628,40	42,423
628,59	43,966
628,78	42,204
628,97	43,739
629,16	41,761
629,35	44,303
629,54	45,842
629,73	41,060
629,92	40,674
630,10	44,280
630,29	44,125
630,48	42,893
630,67	42,085
630,86	44,614
631,05	44,729
631,24	46,334
631,43	41,082
631,62	43,558
631,81	44,092
632,00	43,518
632,19	41,529
632,38	43,973
632,57	45,688
632,76	43,366
632,95	43,694
633,14	45,219
633,33	45,486
633,52	44,813
633,71	43,239
633,90	42,785
634,09	44,940
634,28	45,155
634,47	42,689
634,66	41,961
634,85	45,109
635,04	46,509
635,22	43,521
635,41	44,595
635,60	46,856
635,79	46,511
635,98	41,758
636,17	45,735
636,36	46,023
636,55	45,203
636,74	43,692
636,93	45,139
637,12	46,659
637,31	44,805
637,50	44,354
637,69	46,509
637,87	46,584
638,06	45,137
638,25	45,422
638,44	46,673
638,63	42,714
638,82	44,208
639,01	45,021
639,20	44,533
639,39	47,422
639,58	43,421
639,77	45,439
639,95	43,408
640,14	46,462
640,33	43,638
640,52	44,502
640,71	48,923
640,90	45,919
641,09	48,092
641,28	44,864
641,47	48,014
641,66	45,987
641,84	46,072
642,03	44,699
642,22	44,893
642,41	48,153
642,60	44,690
642,79	46,320
642,98	44,762
643,17	45,244
643,35	43,033
643,54	45,292
643,73	45,964
643,92	46,978
644,11	44,975
644,30	45,213
644,49	47,789
644,67	44,669
644,86	44,234
645,05	45,203
645,24	44,051
645,43	45,333
645,62	45,469
645,81	46,038
645,99	45,951
646,18	47,629
646,37	47,081
646,56	46,807
646,75	47,401
646,94	47,222
647,13	45,941
647,31	44,383
647,50	45,651
647,69	47,118
647,88	46,575
648,07	44,886
648,26	51,205
648,44	45,161
648,63	44,708
648,82	46,668
649,01	47,380
649,20	45,188
649,38	45,694
649,57	44,743
649,76	46,172
649,95	47,165
650,14	44,913
650,33	45,153
650,51	45,945
650,70	46,986
650,89	46,652
651,08	46,779
651,27	46,627
651,45	45,367
651,64	43,670
651,83	46,493
652,02	46,196
652,21	46,962
652,39	48,245
652,58	46,299
652,77	47,522
652,96	48,883
653,15	45,960
653,33	46,253
653,52	46,424
653,71	50,630
653,90	48,740
654,09	47,747
654,27	48,141
654,46	50,211
654,65	47,984
654,84	48,377
655,02	50,644
655,21	49,017
655,40	50,129
655,59	48,037
655,77	49,616
655,96	48,505
656,15	48,481
656,34	51,371
656,53	49,356
656,71	49,217
656,90	48,150
657,09	48,986
657,28	48,239
657,46	46,862
657,65	49,167
657,84	47,010
658,03	48,828
658,21	46,695
658,40	47,077
658,59	47,962
658,78	48,359
658,96	47,272
659,15	47,208
659,34	47,153
659,52	47,305
659,71	48,131
659,90	44,946
660,09	46,440
660,27	48,057
660,46	48,680
660,65	46,181
660,84	45,266
661,02	47,369
661,21	48,701
661,40	45,050
661,58	46,199
661,77	46,563
661,96	44,242
662,15	45,365
662,33	44,618
662,52	45,114
662,71	46,892
662,89	45,285
663,08	44,449
663,27	45,713
663,45	44,877
663,64	47,136
663,83	44,661
664,02	45,533
664,20	47,179
664,39	44,360
664,58	43,960
664,76	46,480
664,95	45,331
665,14	45,941
665,32	44,340
665,51	46,450
665,70	46,842
665,88	46,323
666,07	44,582
666,26	48,067
666,44	47,946
666,63	44,426
666,82	45,854
667,00	47,330
667,19	42,849
667,38	46,081
667,56	46,583
667,75	46,058
667,94	48,290
668,12	43,342
668,31	47,730
668,50	46,738
668,68	47,670
668,87	45,270
669,06	46,729
669,24	47,435
669,43	44,831
669,62	45,909
669,80	45,458
669,99	46,691
670,18	46,344
670,36	44,853
670,55	45,390
670,74	46,374
670,92	45,432
671,11	47,841
671,29	44,791
671,48	46,058
671,67	48,278
671,85	47,711
672,04	45,149
672,23	46,004
672,41	45,881
672,60	46,985
672,78	44,685
672,97	46,112
673,16	47,766
673,34	45,758
673,53	45,088
673,71	46,307
673,90	47,232
674,09	46,315
674,27	44,350
674,46	46,038
674,64	46,392
674,83	45,662
675,02	43,735
675,20	45,519
675,39	44,839
675,57	46,825
675,76	44,569
675,95	48,312
676,13	47,344
676,32	46,347
676,50	47,311
676,69	44,431
676,88	45,212
677,06	44,368
677,25	45,550
677,43	49,401
677,62	47,484
677,80	47,419
677,99	45,942
678,18	46,751
678,36	48,213
678,55	42,870
678,73	45,128
678,92	45,985
679,10	48,473
679,29	47,111
679,48	44,401
679,66	46,401
679,85	45,242
680,03	45,674
680,22	46,794
680,40	44,086
680,59	45,380
680,77	44,667
680,96	46,714
681,15	44,128
681,33	48,201
681,52	44,606
681,70	46,204
681,89	49,365
682,07	45,792
682,26	45,176
682,44	46,311
682,63	48,119
682,81	48,255
683,00	46,791
683,18	44,617
683,37	48,065
683,55	45,434
683,74	47,111
683,92	52,304
684,11	46,369
684,29	47,910
684,48	44,376
684,67	45,828
684,85	47,117
685,04	46,347
685,22	47,356
685,41	46,039
685,59	46,778
685,78	44,264
685,96	45,776
686,15	44,999
686,33	44,905
686,52	45,915
686,70	45,026
686,89	44,687
687,07	47,279
687,26	46,968
687,44	46,548
687,62	45,998
687,81	46,491
687,99	46,196
688,18	46,333
688,36	46,027
688,55	47,183
688,73	44,899
688,92	43,764
689,10	46,338
689,29	46,204
689,47	47,830
689,66	45,419
689,84	46,482
690,03	48,326
690,21	44,700
690,40	46,144
690,58	44,608
690,76	44,367
690,95	46,894
691,13	45,571
691,32	46,614
691,50	46,910
691,69	48,733
691,87	44,735
692,06	46,424
692,24	44,439
692,43	46,271
692,61	45,082
692,79	44,206
692,98	45,204
693,16	47,378
693,35	44,608
693,53	46,206
693,72	48,045
693,90	47,927
694,08	44,189
694,27	45,789
694,45	48,067
694,64	50,232
694,82	45,095
695,01	44,033
695,19	46,939
695,37	46,517
695,56	45,289
695,74	47,575
695,93	47,121
696,11	45,323
696,29	47,236
696,48	45,446
696,66	47,995
696,85	45,396
697,03	44,055
697,21	47,234
697,40	46,086
697,58	45,771
697,77	45,475
697,95	47,027
698,13	47,895
698,32	46,554
698,50	45,562
698,69	45,266
698,87	46,551
699,05	45,144
699,24	44,242
699,42	44,823
699,60	43,406
699,79	45,540
699,97	45,817
700,16	44,081
700,34	48,257
700,52	45,579
700,71	45,169
700,89	44,627
701,07	46,288
701,26	48,082
701,44	43,934
701,63	43,683
701,81	44,234
701,99	46,905
702,18	46,368
702,36	42,821
702,54	45,746
702,73	45,031
702,91	45,968
703,09	45,764
703,28	44,927
703,46	46,719
703,64	44,095
703,83	46,627
704,01	46,781
704,19	46,274
704,38	43,725
704,56	43,959
704,74	46,507
704,93	45,109
705,11	46,520
705,29	44,930
705,48	51,784
705,66	45,864
705,84	45,858
706,03	41,637
706,21	45,116
706,39	45,708
706,58	44,778
706,76	44,019
706,94	45,335
707,12	46,159
707,31	44,571
707,49	43,716
707,67	45,851
707,86	47,655
708,04	42,594
708,22	43,345
708,41	45,324
708,59	45,035
708,77	42,451
708,95	45,527
709,14	49,183
709,32	45,847
709,50	43,117
709,69	43,497
709,87	45,513
710,05	44,550
710,23	43,903
710,42	42,471
710,60	46,316
710,78	47,129
710,97	45,130
711,15	44,410
711,33	47,224
711,51	42,664
711,70	42,603
711,88	44,594
712,06	45,848
712,24	44,786
712,43	44,991
712,61	44,310
712,79	46,037
712,97	44,546
713,16	45,227
713,34	45,036
713,52	47,527
713,70	45,788
713,89	43,738
714,07	43,192
714,25	45,309
714,43	47,226
714,62	44,798
714,80	44,812
714,98	42,501
715,16	44,422
715,35	43,818
715,53	44,636
715,71	46,734
715,89	48,926
716,07	44,380
716,26	48,538
716,44	46,733
716,62	45,124
716,80	46,257
716,99	44,398
717,17	48,492
717,35	45,310
717,53	44,218
717,71	42,784
717,90	46,039
718,08	46,019
718,26	43,942
718,44	46,205
718,62	46,993
718,81	45,820
718,99	44,288
719,17	44,169
719,35	45,388
719,53	45,157
719,72	43,872
719,90	44,994
720,08	43,720
720,26	48,963
720,44	44,145
720,62	46,023
720,81	45,832
720,99	47,303
721,17	42,904
721,35	45,861
721,53	46,157
721,72	46,742
721,90	46,222
722,08	45,313
722,26	46,049
722,44	46,353
722,62	45,093
722,81	43,623
722,99	44,813
723,17	45,466
723,35	45,608
723,53	44,196
723,71	45,809
723,89	49,236
724,08	41,536
724,26	44,193
724,44	46,299
724,62	45,942
724,80	45,991
724,98	45,590
725,16	47,539
725,35	46,672
725,53	45,442
725,71	44,751
725,89	44,470
726,07	47,573
726,25	50,386
726,43	43,910
726,61	45,725
726,80	46,866
726,98	44,458
727,16	44,143
727,34	47,046
727,52	46,001
727,70	42,742
727,88	42,966
728,06	42,259
728,25	45,118
728,43	44,221
728,61	44,635
728,79	46,937
728,97	46,192
729,15	44,707
729,33	44,089
729,51	45,849
729,69	45,253
729,87	44,804
730,06	46,773
730,24	44,479
730,42	48,462
730,60	43,138
730,78	45,034
730,96	45,458
731,14	47,467
731,32	45,865
731,50	43,259
731,68	43,894
731,86	46,188
732,04	45,755
732,22	44,863
732,41	49,500
732,59	46,602
732,77	46,682
732,95	48,928
733,13	47,633
733,31	45,662
733,49	43,799
733,67	48,101
733,85	47,369
734,03	47,212
734,21	44,346
734,39	44,910
734,57	48,627
734,75	47,656
734,93	44,214
735,11	46,917
735,29	43,945
735,47	46,949
735,65	44,186
735,84	42,270
736,02	47,613
736,20	49,268
736,38	44,462
736,56	45,691
736,74	44,444
736,92	43,748
737,10	45,576
737,28	45,881
737,46	45,852
737,64	48,036
737,82	46,551
738,00	45,552
738,18	46,963
738,36	47,164
738,54	45,992
738,72	42,562
738,90	45,151
739,08	47,417
739,26	42,721
739,44	45,356
739,62	47,545
739,80	45,453
739,98	46,154
740,16	46,251
740,34	45,962
740,52	49,387
740,70	44,679
740,88	41,505
741,06	44,836
741,24	46,160
741,42	46,918
741,60	44,701
741,78	47,495
741,96	47,183
742,14	45,481
742,32	41,626
742,50	45,425
742,68	45,587
742,86	43,509
743,04	42,881
743,21	47,049
743,39	45,125
743,57	44,683
743,75	44,605
743,93	44,457
744,11	41,434
744,29	43,777
744,47	44,880
744,65	46,661
744,83	43,834
745,01	43,876
745,19	45,342
745,37	48,193
745,55	47,624
745,73	45,438
745,91	43,319
746,09	44,111
746,27	45,620
746,45	43,143
746,62	45,046
746,80	46,651
746,98	44,942
747,16	43,299
747,34	44,313
747,52	43,719
747,70	45,481
747,88	43,884
748,06	45,621
748,24	46,148
748,42	47,615
748,60	43,504
748,78	44,220
748,95	48,796
749,13	46,980
749,31	43,672
749,49	44,825
749,67	46,070
749,85	47,180
750,03	43,030
750,21	45,739
750,39	46,020
750,57	46,903
750,74	45,398
750,92	44,058
751,10	45,568
751,28	45,382
751,46	45,244
751,64	44,423
751,82	47,086
752,00	45,532
752,17	44,615
752,35	45,533
752,53	47,485
752,71	43,949
752,89	45,894
753,07	43,728
753,25	46,179
753,43	45,196
753,60	46,605
753,78	43,535
753,96	46,604
754,14	45,740
754,32	44,002
754,50	46,971
754,68	46,248
754,85	45,767
755,03	46,973
755,21	47,372
755,39	49,382
755,57	48,027
755,75	44,612
755,92	42,462
756,10	46,639
756,28	44,553
756,46	45,549
756,64	44,964
756,82	47,132
756,99	46,516
757,17	45,516
757,35	44,038
757,53	50,273
757,71	49,225
757,89	43,943
758,06	44,205
758,24	47,425
758,42	47,640
758,60	44,821
758,78	44,854
758,95	46,434
759,13	45,221
759,31	45,431
759,49	44,217
759,67	45,063
759,84	46,493
760,02	45,649
760,20	45,401
760,38	46,535
760,56	45,400
760,73	45,232
760,91	47,199
761,09	48,617
761,27	45,911
761,45	46,218
761,62	45,695
761,80	46,425
761,98	47,157
762,16	47,166
762,33	42,945
762,51	46,851
762,69	46,323
762,87	42,651
763,05	46,359
763,22	44,700
763,40	44,498
763,58	44,468
763,76	44,205
763,93	48,118
764,11	46,809
764,29	43,945
764,47	46,777
764,64	46,728
764,82	47,961
765,00	43,262
765,18	43,917
765,35	44,799
765,53	45,739
765,71	46,047
765,89	44,236
766,06	45,455
766,24	47,400
766,42	45,033
766,60	44,804
766,77	46,106
766,95	46,078
767,13	46,332
767,30	43,788
767,48	45,052
767,66	45,729
767,84	43,508
768,01	45,395
768,19	48,059
768,37	46,473
768,54	45,413
768,72	45,771
768,90	46,768
769,08	48,189
769,25	46,088
769,43	43,416
769,61	44,408
769,78	44,687
769,96	43,077
770,14	45,423
770,31	47,326
770,49	48,226
770,67	45,890
770,85	45,443
771,02	45,834
771,20	44,451
771,38	45,728
771,55	44,327
771,73	45,326
771,91	48,134
772,08	46,659
772,26	44,323
772,44	46,690
772,61	45,830
772,79	43,937
772,97	44,169
773,14	44,848
773,32	47,112
773,50	44,758
773,67	45,195
773,85	48,983
774,03	44,768
774,20	44,562
774,38	42,966
774,56	45,819
774,73	45,262
774,91	44,312
775,09	44,661
775,26	45,497
775,44	46,880
775,61	47,032
775,79	45,570
775,97	46,565
776,14	44,821
776,32	46,112
776,50	45,214
776,67	45,565
776,85	45,940
777,03	43,060
777,20	44,546
777,38	45,460
777,55	44,726
777,73	41,974
777,91	43,645
778,08	46,334
778,26	45,718
778,43	45,691
778,61	42,426
778,79	44,548
778,96	42,512
779,14	45,166
779,32	47,182
779,49	44,874
779,67	50,779
779,84	47,104
780,02	46,404
780,20	42,316
780,37	48,185
780,55	42,990
780,72	47,756
780,90	46,541
781,07	46,366
781,25	46,769
781,43	45,696
781,60	45,184
781,78	45,709
781,95	46,030
782,13	46,183
782,30	49,440
782,48	45,807
782,66	46,287
782,83	42,709
783,01	54,160
783,18	48,332
783,36	45,665
783,53	45,502
783,71	44,321
783,89	43,855
784,06	45,604
784,24	46,850
784,41	48,359
784,59	44,244
784,76	48,527
784,94	45,756
785,11	47,175
785,29	48,521
785,46	46,384
785,64	45,305
785,82	47,981
785,99	49,428
786,17	45,549
786,34	46,287
786,52	48,243
786,69	49,113
786,87	44,256
787,04	46,952
787,22	44,686
787,39	49,769
787,57	48,416
787,74	45,170
787,92	50,745
788,09	49,576
788,27	44,810
788,44	44,444
788,62	46,597
788,79	46,505
788,97	45,867
789,14	45,327
789,32	46,628
789,49	47,834
789,67	47,212
789,84	47,414
790,02	49,325
790,19	46,559
790,37	46,722
790,54	46,391
790,72	52,080
790,89	50,608
791,07	49,068
791,24	42,797
791,42	50,226
791,59	47,213
791,77	47,815
791,94	43,406
792,12	46,749
792,29	47,507
792,47	47,942
792,64	49,792
792,81	48,571
792,99	46,472
793,16	47,622
793,34	50,015
793,51	49,256
793,69	48,130
793,86	46,149
794,04	46,180
794,21	50,880
794,39	44,192
794,56	47,915
794,73	48,496
794,91	51,581
795,08	49,754
795,26	45,645
795,43	46,396
795,61	47,269
795,78	48,799
795,95	47,926
796,13	48,084
796,30	50,814
796,48	46,161
796,65	47,206
796,83	48,275
797,00	52,903
797,17	44,537
797,35	47,709
797,52	49,412
797,70	49,785
797,87	51,153
798,04	45,432
798,22	44,682
798,39	47,225
798,57	49,486
798,74	49,621
798,91	46,835
799,09	49,570
799,26	51,608
799,44	48,641
799,61	44,874
799,78	46,895
799,96	52,017
800,13	45,146
800,31	46,908
800,48	50,555
800,65	53,107
800,83	45,939
801,00	45,879
801,17	50,698
801,35	49,547
801,52	45,737
801,70	47,823
801,87	48,880
802,04	49,704
802,22	46,340
802,39	44,510
802,56	53,848
802,74	50,828
802,91	45,414
803,08	46,733
803,26	48,145
803,43	51,655
803,61	47,721
803,78	45,146
803,95	51,074
804,13	51,184
804,30	47,280
804,47	49,343
804,65	46,625
804,82	52,302
804,99	47,863
805,17	47,518
805,34	56,133
805,51	57,469
805,69	47,176
805,86	42,158
806,03	56,125
806,21	51,443
806,38	48,140
806,55	50,004
806,72	53,865
806,90	53,017
807,07	50,399
807,24	43,964
807,42	45,176
807,59	47,748
807,76	46,286
807,94	48,105
808,11	52,658
808,28	52,871
808,45	48,926
808,63	48,037
808,80	55,736
808,97	48,297
809,15	43,437
809,32	49,865
809,49	41,041
809,67	52,100
809,84	48,581
810,01	49,113
810,18	56,986
810,36	54,270
810,53	52,369
810,70	46,286
810,87	51,666
811,05	49,767
811,22	49,858
811,39	46,041
811,57	54,429
811,74	50,820
811,91	44,367
812,08	50,749
812,26	48,835
812,43	49,043
812,60	51,870
812,77	45,973
812,95	54,088
813,12	52,198
813,29	48,170
813,46	48,202
813,64	50,525
813,81	53,754
813,98	51,642
814,15	50,281
814,32	57,202
814,50	50,391
814,67	51,250
814,84	50,872
815,01	54,069
815,19	43,955
815,36	42,790
815,53	46,418
815,70	46,091
815,87	51,487
816,05	45,674
816,22	48,949
816,39	56,448
816,56	55,677
816,74	51,598
816,91	49,087
817,08	58,972
817,25	56,358
817,42	49,025
817,60	45,388
817,77	50,853
817,94	48,465
818,11	51,322
818,28	50,190
818,45	48,842
818,63	51,960
818,80	55,296
818,97	48,058
819,14	59,754
819,31	57,594
819,49	55,223
819,66	45,527
819,83	50,400
820,00	55,985
820,17	53,685
820,34	51,593
820,52	56,076
820,69	52,552
820,86	44,019
821,03	50,049
821,20	58,101
821,37	58,566
821,55	41,896
821,72	48,987
821,89	54,730
822,06	59,272
822,23	47,462
822,40	51,828
822,57	53,052
822,75	60,201
822,92	46,653
823,09	49,765
823,26	55,959
823,43	56,898
823,60	45,417
823,77	50,051
823,94	53,844
824,12	56,004
824,29	46,971
824,46	46,472
824,63	59,193
824,80	58,645
824,97	48,057
825,14	49,836
825,31	56,813
825,49	52,728
825,66	53,640
825,83	51,887
826,00	54,644
826,17	61,354
826,34	52,231
826,51	45,151
826,68	47,304
826,85	56,358
827,02	50,726
827,20	44,656
827,37	48,428
827,54	55,392
827,71	51,790
827,88	55,187
828,05	57,431
828,22	55,550
828,39	52,668
828,56	56,942
828,73	55,481
828,90	61,011
829,07	46,491
829,25	50,926
829,42	63,034
829,59	49,809
829,76	52,509
829,93	45,516
830,10	59,572
830,27	53,300
830,44	50,730
830,61	52,996
830,78	55,978
830,95	57,846
831,12	45,290
831,29	50,707
831,46	51,117
831,63	50,968
831,80	51,978
831,97	54,215
832,14	59,611
832,31	68,908
832,48	48,912
832,65	51,277
832,83	51,132
833,00	56,777
833,17	48,340
833,34	52,155
833,51	62,047
833,68	56,977
833,85	56,780
834,02	52,671
834,19	54,595
834,36	55,770
834,53	45,221
834,70	50,153
834,87	65,266
835,04	55,292
835,21	56,334
835,38	47,103
835,55	52,550
835,72	68,537
835,89	51,019
836,06	52,806
836,23	64,794
836,40	51,523
836,57	48,519
836,74	63,571
836,91	58,694
837,08	64,870
837,25	49,767
837,42	45,328
837,59	53,906
837,76	56,306
837,93	50,008
838,09	49,271
838,26	60,063
838,43	64,188
838,60	50,941
838,77	56,085
838,94	58,023
839,11	47,461
839,28	46,011
839,45	51,621
839,62	49,808
839,79	55,424
839,96	59,334
840,13	59,190
840,30	46,056
840,47	52,008
840,64	55,595
840,81	55,742
840,98	48,089
841,15	62,713
841,32	49,272
841,48	59,171
841,65	58,875
841,82	49,463
841,99	54,217
842,16	46,777
842,33	60,314
842,50	55,636
842,67	53,014
842,84	55,859
843,01	62,296
843,18	52,444
843,35	57,047
843,52	53,768
843,68	59,393
843,85	57,717
844,02	56,490
844,19	45,043
844,36	67,857
844,53	62,108
844,70	54,149
844,87	65,336
845,04	69,298
845,21	42,001
845,37	67,000
845,54	47,855
845,71	64,805
845,88	79,857
846,05	43,391
846,22	49,347
846,39	62,259
846,56	66,069
846,72	44,313
846,89	52,715
847,06	75,852
847,23	63,898
847,40	49,523
847,57	53,741
847,74	59,827
847,90	62,153
848,07	53,423
848,24	53,822
848,41	59,264
848,58	83,729
848,75	55,140
848,92	50,253
849,08	63,491
849,25	67,137
849,42	45,654
849,59	57,907
849,76	57,004
849,93	63,088
850,09	62,673
850,26	43,787
850,43	77,385
850,60	48,006
850,77	50,814
850,94	52,092
851,10	68,887
851,27	56,405
851,44	44,053
851,61	55,289
851,78	62,799
851,95	72,651
852,11	59,577
852,28	50,311
852,45	66,612
852,62	65,756
852,79	54,848
852,95	50,977
853,12	73,183
853,29	54,019
853,46	56,080
853,63	68,241
853,79	51,330
853,96	55,545
854,13	60,668
854,30	52,361
854,46	79,552
854,63	66,822
854,80	69,028
854,97	55,867
855,14	76,519
855,30	71,507
855,47	54,109
855,64	59,866
855,81	57,681
855,97	78,674
856,14	58,995
856,31	49,469
856,48	78,071
856,65	80,249
856,81	56,228
856,98	46,140
857,15	63,945
857,32	73,561
857,48	53,802
857,65	56,968
857,82	82,653
857,99	59,505
858,15	56,123
858,32	58,839
858,49	61,233
858,65	92,756
858,82	58,894
858,99	56,845
859,16	72,211
859,32	73,857
859,49	51,361
859,66	51,300
859,83	62,895
859,99	63,292
860,16	59,351
860,33	57,354
860,49	66,688
860,66	68,412
860,83	57,562
861,00	68,380
861,16	85,679
861,33	67,965
861,50	47,701
861,66	48,991
861,83	97,694
862,00	63,553
862,16	63,585
862,33	67,412
862,50	102,916
862,67	79,033
862,83	59,727
863,00	68,587
863,17	85,174
863,33	60,202
863,50	33,805
863,67	58,236
863,83	72,029
864,00	80,939
864,17	37,437
864,33	54,350
864,50	83,304
864,67	52,569
864,83	57,217
865,00	45,520
865,17	66,432
865,33	75,728
865,50	64,832
865,67	49,064
865,83	77,237
866,00	126,154
866,17	76,603
866,33	69,812
866,50	91,377
866,66	65,164
866,83	63,341
867,00	79,780
867,16	105,694
867,33	104,003
867,50	52,767
867,66	66,415
867,83	92,651
868,00	86,457
868,16	47,506
868,33	55,781
868,49	102,052
868,66	91,236
868,83	57,276
868,99	72,339
869,16	109,302
869,32	92,344
869,49	54,781
869,66	41,740
869,82	97,420
869,99	95,032
870,15	53,394
870,32	60,293
870,49	112,947
870,65	139,388
870,82	83,586
870,98	52,716
871,15	120,101
871,32	91,161
871,48	29,182
871,65	69,567
871,81	68,935
871,98	71,696
872,15	46,127
872,31	51,462
872,48	131,562
872,64	75,104
872,81	56,905
872,97	66,199
873,14	118,259
873,31	105,852
873,47	53,141
873,64	89,127
873,80	137,796
873,97	132,898
874,13	64,461
874,30	60,079
874,46	114,205
874,63	97,756
874,80	61,362
874,96	57,475
875,13	145,628
875,29	89,085
875,46	119,504
875,62	63,467
875,79	122,555
875,95	95,336
876,12	61,149
876,28	40,779
876,45	106,899
876,61	104,333
876,78	57,808
876,94	37,967
877,11	104,155
877,27	118,822
877,44	62,719
877,60	68,754
877,77	122,535
877,94	125,951
878,10	55,986
878,27	88,474
878,43	122,674
878,60	56,835
878,76	58,590
878,93	78,776
879,09	182,095
879,26	117,108
879,42	102,847
879,58	91,436
879,75	138,104
879,91	162,255
880,08	-2,108
880,24	58,720
880,41	82,737
880,57	135,144
880,74	56,918
880,90	57,132
881,07	108,105
881,23	166,619
881,40	61,202
881,56	92,001
881,73	126,591
881,89	103,310
882,06	36,668
882,22	208,922
882,38	199,677
882,55	222,210
882,71	76,036
882,88	38,546
883,04	197,253
883,21	257,498
883,37	83,126
883,54	82,862
883,70	286,316
883,86	160,618
884,03	102,070
884,19	65,798
884,36	133,244
884,52	233,615
884,69	148,818
884,85	28,882
885,01	158,319
885,18	170,294
885,34	254,519
885,51	17,878
885,67	96,075
>>>>> Data<<<<< Espectral Procesado Extremo
