Fichero De Datos De SpectraSuite
++++++++++++++++++++++++++++++++++++
Fecha: Wed Apr 22 13:26:50 CEST 2009
Usuario: evoflor
Presente Oscuro Del Espectro: Sí
La Referencia de Presente Del Espectro De: Sí
Muestreados de los componentes de Número de espectros: 1
Espectrómetros: USB4F02353
Tiempo de integración (usec): 500000 (USB4F02353)
Promedio de Espectros Hechos un: 5 (USB4F02353)
El Alisar Del Furgón: 0 (USB4F02353)
Párrafo de de Corregir del la del del de Eléctrica del obscuridad: Sí (USB4F02353)
Estrobo/Lámpara Permitido: No (USB4F02353)
Correct for Detector Non-linearity: No (USB4F02353)
Párrafo de de Corregir del la del del de Externa del luz: No (USB4F02353)
Procesado del espectro de Número de pixeles en: 3648
>>>>> Comienza Data<<<<< Espectral Procesado Del EL
177,79	295,007
178,00	295,007
178,22	295,007
178,44	1386,923
178,66	-282,255
178,88	197,101
179,09	-198,255
179,31	214,070
179,53	776,749
179,75	213,524
179,96	486,983
180,18	-362,123
180,40	498,057
180,62	441,088
180,83	-123,595
181,05	-1775,488
181,27	-220290,000
181,49	76,761
181,70	404,192
181,92	821,269
182,14	351,777
182,36	136,348
182,58	-321,900
182,79	1557,991
183,01	-135,361
183,23	179,955
183,45	-146,123
183,66	44,735
183,88	634,059
184,10	-2810,727
184,32	315,817
184,53	201,286
184,75	-297,478
184,97	28,162
185,18	-65,583
185,40	-583,125
185,62	210,092
185,84	107,620
186,05	139,889
186,27	-71,874
186,49	1065,000
186,71	45,453
186,92	134,692
187,14	-275,922
187,36	203,169
187,58	139,348
187,79	-187,067
188,01	275,100
188,23	-168,153
188,45	-43,071
188,66	191,920
188,88	-2041,636
189,10	-1878,900
189,31	137,048
189,53	162,208
189,75	382,023
189,97	383,423
190,18	-89,742
190,40	739,941
190,62	-103,753
190,83	-241,226
191,05	261,510
191,27	35,400
191,49	324,728
191,70	-388,413
191,92	-524,492
192,14	-59,760
192,35	512,706
192,57	7785,429
192,79	-12,013
193,01	163,276
193,22	143,297
193,44	-113,294
193,66	86,752
193,87	93,983
194,09	-79,097
194,31	301,172
194,53	892,238
194,74	82,403
194,96	136,688
195,18	120,065
195,39	-350,897
195,61	-148,431
195,83	-322,370
196,04	150,260
196,26	-71,307
196,48	-28,915
196,70	337,753
196,91	198,283
197,13	-0,532
197,35	-48,921
197,56	737,740
197,78	2308,881
198,00	464,266
198,21	912,087
198,43	-1165,640
198,65	218,269
198,86	284,137
199,08	58,328
199,30	136,215
199,51	-392,150
199,73	327,090
199,95	367,054
200,16	881,885
200,38	139,083
200,60	140,927
200,81	151,799
201,03	-71,495
201,25	-2283,900
201,46	129,746
201,68	89,717
201,90	2715,682
202,11	-806,450
202,33	282,388
202,55	-182,625
202,76	-121,270
202,98	372,439
203,20	-159,087
203,41	48,474
203,63	171,803
203,85	-203190,000
204,06	227,123
204,28	-103,590
204,50	211,405
204,71	333,551
204,93	-347,280
205,15	262,319
205,36	-445,296
205,58	225,893
205,80	-120,376
206,01	66,290
206,23	166,361
206,45	288,869
206,66	158,476
206,88	-90,403
207,10	259,295
207,31	318,000
207,53	120,257
207,75	4,055
207,96	529,030
208,18	-160,904
208,39	44,140
208,61	2822,571
208,83	-313,850
209,04	427,388
209,26	-235,438
209,48	307,336
209,69	252,242
209,91	567,872
210,13	37,205
210,34	110,630
210,56	208,460
210,77	-1472,362
210,99	134,747
211,21	12693,529
211,42	-275,606
211,64	-42,095
211,86	169,051
212,07	276,720
212,29	240,524
212,50	144,557
212,72	68,423
212,94	143,249
213,15	174,696
213,37	104,669
213,58	-187,118
213,80	-3496,071
214,02	13540,588
214,23	403,631
214,45	515,705
214,67	-765,732
214,88	-322,450
215,10	-191,356
215,31	-124,258
215,53	-106,841
215,75	234,417
215,96	1977,578
216,18	-79,014
216,39	148,665
216,61	506,528
216,83	597,723
217,04	1979,663
217,26	159,339
217,47	114,312
217,69	392,202
217,91	65,490
218,12	-80790,000
218,34	153,544
218,55	448,249
218,77	-12,380
218,99	157,605
219,20	-152,527
219,42	501,814
219,63	-68,635
219,85	-62,122
220,06	-0,808
220,28	145,702
220,50	-30,986
220,71	64,716
220,93	4546,981
221,14	-1788,900
221,36	36,539
221,58	204,927
221,79	125,884
222,01	882,672
222,22	981,513
222,44	-255,169
222,65	158,197
222,87	451,678
223,09	144,675
223,30	105,378
223,52	214,039
223,73	58,331
223,95	87,169
224,16	296,474
224,38	519,882
224,60	96,415
224,81	156,125
225,03	129,615
225,24	124,876
225,46	-1,844
225,67	77,519
225,89	-22,657
226,10	579,488
226,32	675,120
226,54	76,361
226,75	0,791
226,97	142,627
227,18	225,354
227,40	13,643
227,61	52,942
227,83	19,531
228,04	135,012
228,26	75,951
228,47	20,766
228,69	120,544
228,91	118,659
229,12	43,752
229,34	40,491
229,55	48,380
229,77	12,130
229,98	2,801
230,20	69,450
230,41	21,304
230,63	128,900
230,84	51,572
231,06	24,013
231,27	12,051
231,49	50,866
231,71	32,211
231,92	23,978
232,14	33,782
232,35	121,831
232,57	70,188
232,78	31,881
233,00	60,229
233,21	81,650
233,43	4,858
233,64	14,909
233,86	50,480
234,07	35,991
234,29	31,763
234,50	15,604
234,72	45,853
234,93	22,955
235,15	11,373
235,36	32,749
235,58	37,340
235,79	60,301
236,01	20,138
236,22	16,899
236,44	72,008
236,65	41,609
236,87	34,197
237,08	9,968
237,30	-13,672
237,51	27,472
237,73	3,247
237,94	11,319
238,16	27,348
238,37	11,590
238,59	0,910
238,80	16,809
239,02	9,313
239,23	25,644
239,45	2,780
239,66	23,309
239,88	42,367
240,09	23,021
240,31	2,964
240,52	10,707
240,74	18,788
240,95	26,443
241,17	10,784
241,38	4,414
241,60	8,613
241,81	19,684
242,03	5,076
242,24	10,932
242,46	23,776
242,67	4,692
242,89	11,775
243,10	13,700
243,32	22,308
243,53	18,221
243,75	13,136
243,96	8,899
244,18	14,831
244,39	17,813
244,60	9,158
244,82	4,356
245,03	20,932
245,25	7,915
245,46	28,734
245,68	4,828
245,89	18,898
246,11	16,977
246,32	13,372
246,54	5,460
246,75	16,395
246,97	15,835
247,18	23,399
247,39	9,019
247,61	8,199
247,82	12,870
248,04	8,283
248,25	6,808
248,47	14,907
248,68	14,645
248,90	6,166
249,11	5,954
249,33	21,333
249,54	12,153
249,75	16,595
249,97	7,529
250,18	18,310
250,40	19,731
250,61	-8,466
250,83	9,272
251,04	5,117
251,25	16,237
251,47	1,296
251,68	14,704
251,90	12,233
252,11	10,822
252,33	10,153
252,54	9,489
252,76	8,653
252,97	7,465
253,18	-0,546
253,40	4,574
253,61	4,170
253,83	11,312
254,04	9,746
254,25	8,312
254,47	8,145
254,68	11,464
254,90	-0,277
255,11	10,161
255,33	11,177
255,54	8,624
255,75	5,806
255,97	7,120
256,18	1,707
256,40	6,432
256,61	9,089
256,82	-0,423
257,04	13,705
257,25	2,901
257,47	7,398
257,68	5,583
257,89	13,364
258,11	12,141
258,32	12,115
258,54	6,945
258,75	14,271
258,96	11,020
259,18	8,119
259,39	5,446
259,61	14,479
259,82	5,161
260,03	7,482
260,25	5,373
260,46	8,794
260,68	6,663
260,89	4,951
261,10	12,380
261,32	10,193
261,53	6,783
261,75	8,061
261,96	4,980
262,17	15,448
262,39	12,017
262,60	3,530
262,81	1,402
263,03	15,404
263,24	12,769
263,46	2,082
263,67	4,161
263,88	9,268
264,10	7,121
264,31	6,088
264,52	8,129
264,74	8,697
264,95	5,075
265,17	9,513
265,38	7,705
265,59	10,728
265,81	10,794
266,02	2,699
266,23	2,408
266,45	11,860
266,66	11,492
266,87	7,309
267,09	4,446
267,30	12,482
267,52	14,135
267,73	4,944
267,94	6,757
268,16	7,529
268,37	5,230
268,58	9,194
268,80	8,566
269,01	7,872
269,22	7,673
269,44	9,446
269,65	3,976
269,86	2,995
270,08	8,406
270,29	6,161
270,50	3,655
270,72	10,383
270,93	6,154
271,14	3,644
271,36	3,917
271,57	8,891
271,78	5,914
272,00	9,106
272,21	9,879
272,42	10,558
272,64	13,591
272,85	9,596
273,06	6,986
273,28	9,462
273,49	9,608
273,70	9,766
273,92	8,815
274,13	8,627
274,34	5,184
274,56	4,633
274,77	6,008
274,98	12,595
275,20	9,439
275,41	8,761
275,62	6,457
275,84	4,518
276,05	13,172
276,26	1,684
276,47	4,412
276,69	11,011
276,90	14,497
277,11	6,079
277,33	4,224
277,54	10,608
277,75	8,580
277,97	4,246
278,18	5,268
278,39	13,204
278,61	7,080
278,82	7,595
279,03	7,465
279,24	7,750
279,46	5,312
279,67	9,474
279,88	6,789
280,10	11,787
280,31	2,324
280,52	8,368
280,73	3,585
280,95	9,376
281,16	10,095
281,37	5,676
281,59	11,402
281,80	9,710
282,01	8,130
282,22	9,868
282,44	4,455
282,65	17,119
282,86	10,471
283,08	4,830
283,29	7,342
283,50	4,987
283,71	9,162
283,93	8,590
284,14	11,392
284,35	6,075
284,56	9,169
284,78	5,345
284,99	7,265
285,20	11,376
285,42	9,231
285,63	5,983
285,84	1,593
286,05	5,682
286,27	8,234
286,48	5,555
286,69	5,781
286,90	5,426
287,12	5,441
287,33	4,747
287,54	5,835
287,75	9,793
287,97	8,498
288,18	5,951
288,39	6,129
288,60	8,439
288,82	9,297
289,03	5,184
289,24	9,435
289,45	8,368
289,67	7,338
289,88	6,867
290,09	8,412
290,30	10,855
290,52	3,840
290,73	6,077
290,94	1,670
291,15	8,128
291,37	7,556
291,58	6,740
291,79	5,038
292,00	8,814
292,21	9,056
292,43	6,884
292,64	3,869
292,85	5,591
293,06	10,150
293,28	3,201
293,49	2,686
293,70	10,690
293,91	4,750
294,12	4,385
294,34	7,283
294,55	7,850
294,76	8,101
294,97	7,874
295,19	2,892
295,40	7,571
295,61	7,422
295,82	1,412
296,03	6,295
296,25	6,834
296,46	5,311
296,67	3,244
296,88	3,183
297,09	7,095
297,31	6,090
297,52	7,341
297,73	2,154
297,94	7,919
298,15	8,692
298,37	6,379
298,58	7,631
298,79	8,011
299,00	4,683
299,21	4,887
299,43	3,204
299,64	8,403
299,85	8,028
300,06	4,429
300,27	3,927
300,49	9,533
300,70	9,080
300,91	7,127
301,12	5,687
301,33	12,547
301,54	4,189
301,76	7,781
301,97	5,157
302,18	4,099
302,39	8,092
302,60	14,858
302,82	4,734
303,03	8,643
303,24	7,416
303,45	6,749
303,66	5,931
303,87	5,786
304,09	9,346
304,30	2,935
304,51	3,932
304,72	6,219
304,93	7,081
305,14	4,880
305,36	2,214
305,57	4,168
305,78	6,002
305,99	5,682
306,20	5,677
306,41	2,606
306,62	7,955
306,84	5,287
307,05	2,221
307,26	6,908
307,47	8,342
307,68	6,311
307,89	6,466
308,11	8,620
308,32	5,195
308,53	5,702
308,74	4,229
308,95	6,499
309,16	8,964
309,37	10,196
309,59	2,846
309,80	8,703
310,01	6,700
310,22	6,489
310,43	4,966
310,64	6,440
310,85	9,070
311,06	5,731
311,28	6,211
311,49	4,085
311,70	10,004
311,91	3,216
312,12	4,685
312,33	7,308
312,54	7,702
312,75	5,522
312,97	4,471
313,18	8,588
313,39	5,958
313,60	6,783
313,81	4,454
314,02	6,642
314,23	7,627
314,44	4,019
314,65	4,587
314,87	4,508
315,08	6,461
315,29	9,490
315,50	6,249
315,71	8,198
315,92	9,194
316,13	5,836
316,34	7,165
316,55	7,619
316,77	2,946
316,98	4,567
317,19	2,822
317,40	8,071
317,61	10,080
317,82	4,332
318,03	3,016
318,24	3,927
318,45	8,031
318,66	3,713
318,87	4,172
319,09	6,949
319,30	7,536
319,51	7,195
319,72	7,597
319,93	7,002
320,14	7,934
320,35	7,556
320,56	4,786
320,77	5,428
320,98	12,281
321,19	6,479
321,40	6,126
321,62	6,733
321,83	5,495
322,04	6,221
322,25	6,303
322,46	10,487
322,67	9,485
322,88	7,210
323,09	4,150
323,30	8,233
323,51	12,270
323,72	7,683
323,93	4,840
324,14	5,761
324,35	2,242
324,56	2,118
324,77	4,032
324,99	5,383
325,20	2,018
325,41	6,141
325,62	6,164
325,83	4,182
326,04	5,250
326,25	8,202
326,46	3,449
326,67	7,097
326,88	7,061
327,09	6,581
327,30	3,321
327,51	7,390
327,72	7,445
327,93	8,807
328,14	5,114
328,35	5,966
328,56	6,247
328,77	6,874
328,98	6,913
329,19	7,161
329,40	9,433
329,61	4,683
329,82	3,350
330,04	9,087
330,25	7,248
330,46	9,037
330,67	1,935
330,88	6,908
331,09	6,640
331,30	5,140
331,51	5,685
331,72	9,065
331,93	10,205
332,14	5,600
332,35	6,530
332,56	7,846
332,77	6,436
332,98	2,122
333,19	3,936
333,40	7,768
333,61	4,730
333,82	6,951
334,03	9,041
334,24	8,999
334,45	8,948
334,66	6,826
334,87	6,913
335,08	5,611
335,29	3,678
335,50	3,100
335,71	3,035
335,92	7,957
336,13	10,285
336,34	2,276
336,55	4,739
336,76	9,386
336,97	7,416
337,18	3,949
337,39	5,898
337,60	8,365
337,81	6,140
338,02	10,043
338,23	6,166
338,44	6,927
338,65	4,787
338,86	8,196
339,07	5,504
339,28	6,097
339,49	5,138
339,70	3,883
339,91	5,191
340,11	11,839
340,32	4,933
340,53	4,362
340,74	1,892
340,95	6,852
341,16	8,754
341,37	6,025
341,58	4,810
341,79	4,141
342,00	6,753
342,21	6,603
342,42	4,865
342,63	7,678
342,84	5,400
343,05	4,712
343,26	8,132
343,47	8,463
343,68	3,913
343,89	7,752
344,10	5,947
344,31	7,107
344,52	6,568
344,73	4,484
344,94	6,596
345,14	8,734
345,35	8,102
345,56	5,878
345,77	6,279
345,98	7,017
346,19	7,855
346,40	7,928
346,61	6,374
346,82	8,442
347,03	9,678
347,24	9,416
347,45	4,586
347,66	11,741
347,87	9,872
348,08	7,721
348,28	2,332
348,49	7,316
348,70	10,082
348,91	9,436
349,12	6,154
349,33	20,163
349,54	7,433
349,75	9,412
349,96	7,203
350,17	8,570
350,38	5,577
350,59	10,393
350,80	8,817
351,00	11,572
351,21	13,335
351,42	7,948
351,63	6,980
351,84	11,135
352,05	10,334
352,26	4,925
352,47	7,818
352,68	9,051
352,89	8,169
353,09	9,601
353,30	2,401
353,51	8,561
353,72	11,978
353,93	12,355
354,14	5,663
354,35	10,029
354,56	12,599
354,77	8,029
354,98	4,060
355,18	10,514
355,39	12,292
355,60	4,728
355,81	7,914
356,02	14,404
356,23	8,829
356,44	6,620
356,65	8,725
356,85	15,081
357,06	12,412
357,27	10,211
357,48	4,311
357,69	13,315
357,90	9,308
358,11	7,538
358,32	6,377
358,52	13,026
358,73	7,290
358,94	6,756
359,15	9,680
359,36	10,064
359,57	7,396
359,78	9,305
359,98	6,057
360,19	7,885
360,40	8,160
360,61	11,146
360,82	6,052
361,03	13,384
361,24	12,298
361,44	9,491
361,65	10,196
361,86	6,963
362,07	10,138
362,28	8,121
362,49	7,355
362,70	10,746
362,90	11,830
363,11	5,600
363,32	7,266
363,53	9,612
363,74	13,824
363,95	10,834
364,15	10,630
364,36	11,741
364,57	10,350
364,78	9,533
364,99	9,574
365,20	13,505
365,40	11,052
365,61	7,773
365,82	10,824
366,03	10,934
366,24	12,978
366,45	6,724
366,65	9,611
366,86	11,203
367,07	9,987
367,28	9,915
367,49	10,207
367,69	14,649
367,90	10,809
368,11	11,308
368,32	10,220
368,53	12,479
368,73	16,265
368,94	12,175
369,15	8,713
369,36	14,215
369,57	13,922
369,78	10,546
369,98	13,887
370,19	19,185
370,40	11,271
370,61	11,491
370,82	11,422
371,02	14,505
371,23	16,791
371,44	13,093
371,65	13,324
371,85	18,303
372,06	9,712
372,27	11,570
372,48	12,292
372,69	12,411
372,89	13,580
373,10	16,246
373,31	12,291
373,52	15,120
373,73	17,181
373,93	15,235
374,14	14,807
374,35	14,859
374,56	16,331
374,76	14,253
374,97	15,142
375,18	15,487
375,39	17,320
375,60	13,228
375,80	14,452
376,01	13,179
376,22	16,614
376,43	18,582
376,63	15,291
376,84	13,028
377,05	15,610
377,26	14,768
377,46	12,749
377,67	14,105
377,88	14,305
378,09	16,527
378,29	13,099
378,50	15,326
378,71	19,648
378,92	13,331
379,12	14,554
379,33	15,259
379,54	15,249
379,75	19,033
379,95	12,668
380,16	15,793
380,37	21,958
380,58	16,509
380,78	18,212
380,99	15,734
381,20	16,746
381,41	16,527
381,61	16,454
381,82	18,831
382,03	17,940
382,24	14,540
382,44	16,496
382,65	16,502
382,86	17,129
383,06	15,505
383,27	16,928
383,48	19,650
383,69	20,026
383,89	17,719
384,10	18,153
384,31	17,855
384,51	19,196
384,72	18,355
384,93	18,178
385,14	18,603
385,34	19,082
385,55	16,229
385,76	15,352
385,96	20,543
386,17	19,069
386,38	23,379
386,59	22,331
386,79	20,557
387,00	22,651
387,21	21,221
387,41	20,487
387,62	19,264
387,83	23,215
388,03	17,379
388,24	12,051
388,45	19,402
388,66	24,035
388,86	22,812
389,07	16,744
389,28	26,142
389,48	26,498
389,69	17,411
389,90	19,724
390,10	23,895
390,31	24,522
390,52	19,641
390,72	17,742
390,93	22,996
391,14	21,311
391,34	20,365
391,55	23,948
391,76	25,360
391,96	24,097
392,17	21,828
392,38	24,491
392,58	24,897
392,79	22,144
393,00	19,552
393,20	19,735
393,41	23,316
393,62	25,771
393,82	22,164
394,03	20,821
394,24	26,701
394,44	29,685
394,65	25,897
394,86	22,584
395,06	29,393
395,27	25,616
395,48	23,737
395,68	24,351
395,89	24,802
396,10	27,618
396,30	24,883
396,51	19,865
396,72	27,425
396,92	26,646
397,13	26,065
397,34	19,580
397,54	26,128
397,75	23,778
397,95	24,765
398,16	23,709
398,37	25,628
398,57	26,843
398,78	26,406
398,99	30,275
399,19	28,869
399,40	31,031
399,60	26,135
399,81	25,859
400,02	25,027
400,22	28,911
400,43	25,392
400,64	24,793
400,84	25,537
401,05	28,959
401,25	27,123
401,46	29,800
401,67	28,133
401,87	26,512
402,08	22,219
402,29	25,470
402,49	29,264
402,70	32,123
402,90	22,409
403,11	27,445
403,32	26,647
403,52	27,721
403,73	28,174
403,93	30,029
404,14	32,701
404,35	29,937
404,55	24,950
404,76	24,188
404,96	33,641
405,17	32,104
405,38	32,114
405,58	26,948
405,79	30,359
405,99	26,803
406,20	28,936
406,40	25,819
406,61	34,641
406,82	26,935
407,02	29,434
407,23	30,098
407,43	29,870
407,64	25,608
407,85	30,752
408,05	24,580
408,26	37,649
408,46	34,613
408,67	23,838
408,87	27,969
409,08	25,495
409,29	37,771
409,49	31,473
409,70	31,025
409,90	29,843
410,11	30,068
410,31	33,632
410,52	26,885
410,72	27,823
410,93	32,407
411,14	28,163
411,34	25,378
411,55	33,814
411,75	35,945
411,96	30,721
412,16	32,572
412,37	29,797
412,57	30,629
412,78	30,475
412,99	32,580
413,19	34,675
413,40	31,755
413,60	26,570
413,81	32,024
414,01	32,035
414,22	26,589
414,42	31,138
414,63	27,852
414,83	34,790
415,04	37,289
415,24	30,824
415,45	29,044
415,65	30,624
415,86	34,990
416,07	31,967
416,27	35,707
416,48	35,804
416,68	39,113
416,89	27,339
417,09	30,768
417,30	36,953
417,50	34,133
417,71	32,840
417,91	33,619
418,12	31,108
418,32	34,039
418,53	27,399
418,73	32,158
418,94	29,738
419,14	32,259
419,35	28,093
419,55	34,125
419,76	36,930
419,96	33,823
420,17	32,809
420,37	32,145
420,58	35,823
420,78	31,277
420,99	31,657
421,19	35,669
421,40	36,203
421,60	38,015
421,81	31,178
422,01	33,967
422,22	35,011
422,42	39,583
422,63	30,233
422,83	33,292
423,04	37,373
423,24	39,232
423,45	30,935
423,65	35,488
423,86	41,102
424,06	36,925
424,27	31,014
424,47	31,051
424,67	30,313
424,88	33,411
425,08	31,973
425,29	39,493
425,49	33,587
425,70	30,212
425,90	34,162
426,11	34,184
426,31	34,624
426,52	35,199
426,72	34,287
426,93	33,447
427,13	38,215
427,33	33,478
427,54	36,929
427,74	37,480
427,95	38,242
428,15	31,617
428,36	30,380
428,56	32,068
428,77	33,261
428,97	33,011
429,18	33,089
429,38	28,729
429,58	38,732
429,79	37,592
429,99	32,451
430,20	27,341
430,40	36,161
430,61	33,896
430,81	32,657
431,01	33,647
431,22	39,148
431,42	34,782
431,63	27,650
431,83	31,134
432,04	33,880
432,24	36,335
432,44	32,867
432,65	30,621
432,85	30,920
433,06	32,799
433,26	29,753
433,47	32,387
433,67	31,352
433,87	28,961
434,08	29,159
434,28	29,883
434,49	32,023
434,69	37,404
434,89	27,654
435,10	30,559
435,30	33,738
435,51	30,768
435,71	34,571
435,91	31,932
436,12	32,878
436,32	30,889
436,53	31,694
436,73	32,001
436,93	34,459
437,14	35,197
437,34	33,422
437,55	28,687
437,75	32,272
437,95	38,852
438,16	32,115
438,36	31,923
438,57	28,090
438,77	30,126
438,97	35,723
439,18	39,037
439,38	33,149
439,58	30,782
439,79	34,739
439,99	29,021
440,20	39,319
440,40	34,114
440,60	31,172
440,81	35,348
441,01	29,967
441,21	36,097
441,42	36,866
441,62	37,040
441,83	30,587
442,03	33,888
442,23	34,023
442,44	33,583
442,64	36,557
442,84	34,244
443,05	34,129
443,25	33,109
443,45	30,126
443,66	35,026
443,86	30,779
444,06	34,618
444,27	32,263
444,47	33,857
444,67	30,654
444,88	35,381
445,08	33,374
445,28	35,723
445,49	29,637
445,69	30,569
445,90	33,732
446,10	38,253
446,30	35,061
446,51	34,998
446,71	40,797
446,91	41,202
447,12	38,018
447,32	35,429
447,52	35,287
447,72	37,947
447,93	35,027
448,13	32,584
448,33	40,300
448,54	39,428
448,74	34,244
448,94	33,971
449,15	40,434
449,35	40,921
449,55	35,168
449,76	38,905
449,96	32,644
450,16	38,625
450,37	32,032
450,57	33,230
450,77	33,922
450,98	34,889
451,18	39,391
451,38	34,659
451,58	38,321
451,79	34,384
451,99	34,108
452,19	33,860
452,40	39,575
452,60	31,775
452,80	34,829
453,00	38,745
453,21	36,357
453,41	37,405
453,61	36,098
453,82	37,656
454,02	37,891
454,22	43,920
454,42	37,093
454,63	31,943
454,83	36,182
455,03	34,483
455,24	35,622
455,44	37,244
455,64	35,857
455,84	31,535
456,05	31,364
456,25	35,584
456,45	34,835
456,65	36,789
456,86	35,081
457,06	37,555
457,26	38,144
457,47	44,512
457,67	35,361
457,87	34,895
458,07	36,278
458,28	35,649
458,48	39,315
458,68	35,436
458,88	38,886
459,09	35,810
459,29	39,442
459,49	35,078
459,69	37,964
459,90	37,883
460,10	34,490
460,30	33,479
460,50	35,972
460,71	39,427
460,91	30,959
461,11	36,989
461,31	33,732
461,52	41,260
461,72	34,231
461,92	34,275
462,12	40,055
462,32	33,366
462,53	37,075
462,73	35,531
462,93	41,157
463,13	44,004
463,34	37,455
463,54	33,351
463,74	40,133
463,94	35,360
464,14	35,156
464,35	32,414
464,55	39,342
464,75	41,258
464,95	36,473
465,16	35,137
465,36	39,069
465,56	37,678
465,76	34,770
465,96	38,655
466,17	35,039
466,37	33,410
466,57	38,878
466,77	37,438
466,97	35,183
467,18	41,270
467,38	41,106
467,58	39,508
467,78	40,298
467,98	37,617
468,19	37,174
468,39	39,485
468,59	39,341
468,79	39,483
468,99	35,696
469,19	32,896
469,40	38,776
469,60	35,693
469,80	34,281
470,00	36,618
470,20	41,867
470,41	36,802
470,61	37,516
470,81	37,581
471,01	32,581
471,21	40,450
471,41	33,326
471,62	39,602
471,82	34,755
472,02	35,008
472,22	35,254
472,42	36,104
472,62	40,155
472,83	36,420
473,03	41,035
473,23	40,431
473,43	44,183
473,63	37,063
473,83	40,541
474,03	36,611
474,24	41,156
474,44	37,157
474,64	37,563
474,84	39,020
475,04	38,915
475,24	39,988
475,45	36,109
475,65	34,947
475,85	42,072
476,05	32,725
476,25	37,684
476,45	37,532
476,65	45,364
476,85	37,648
477,06	41,151
477,26	36,466
477,46	40,857
477,66	37,377
477,86	40,550
478,06	36,431
478,26	41,879
478,46	34,600
478,67	38,927
478,87	35,558
479,07	39,135
479,27	39,646
479,47	38,583
479,67	33,991
479,87	36,322
480,07	43,161
480,28	41,272
480,48	35,743
480,68	40,608
480,88	43,931
481,08	39,337
481,28	37,539
481,48	40,516
481,68	37,843
481,88	38,813
482,08	36,888
482,29	41,116
482,49	37,073
482,69	37,873
482,89	37,755
483,09	44,015
483,29	36,206
483,49	37,023
483,69	39,923
483,89	38,233
484,09	37,614
484,29	34,220
484,50	37,341
484,70	39,736
484,90	38,004
485,10	37,534
485,30	39,700
485,50	42,096
485,70	38,698
485,90	37,867
486,10	34,746
486,30	37,625
486,50	38,157
486,70	36,293
486,90	36,992
487,10	40,921
487,30	38,475
487,51	39,068
487,71	35,967
487,91	35,017
488,11	38,934
488,31	32,823
488,51	40,071
488,71	37,557
488,91	39,569
489,11	34,050
489,31	37,481
489,51	40,708
489,71	36,316
489,91	37,758
490,11	37,402
490,31	38,620
490,51	36,125
490,71	38,153
490,91	35,883
491,11	40,545
491,31	36,520
491,51	35,914
491,72	38,191
491,92	40,330
492,12	41,900
492,32	41,207
492,52	39,019
492,72	38,902
492,92	41,454
493,12	39,777
493,32	37,983
493,52	36,042
493,72	41,522
493,92	41,126
494,12	40,423
494,32	42,676
494,52	38,562
494,72	40,101
494,92	38,115
495,12	40,961
495,32	46,026
495,52	41,458
495,72	38,983
495,92	44,046
496,12	45,232
496,32	38,597
496,52	37,931
496,72	37,889
496,92	41,460
497,12	42,791
497,32	40,934
497,52	44,592
497,72	43,619
497,92	43,503
498,12	42,181
498,32	41,033
498,52	42,701
498,72	39,465
498,92	38,641
499,12	43,410
499,32	38,293
499,52	42,943
499,72	43,773
499,92	44,254
500,12	42,594
500,32	44,278
500,52	43,904
500,72	45,940
500,91	46,804
501,11	41,195
501,31	39,684
501,51	43,216
501,71	47,714
501,91	43,940
502,11	43,676
502,31	42,694
502,51	45,692
502,71	40,676
502,91	43,125
503,11	47,750
503,31	44,654
503,51	39,635
503,71	40,201
503,91	47,447
504,11	45,299
504,31	43,948
504,51	43,431
504,71	47,008
504,91	42,379
505,10	43,147
505,30	45,250
505,50	46,153
505,70	43,563
505,90	42,469
506,10	39,525
506,30	41,421
506,50	45,404
506,70	46,027
506,90	42,640
507,10	42,030
507,30	44,989
507,50	46,072
507,70	45,439
507,89	45,108
508,09	41,985
508,29	43,927
508,49	44,531
508,69	41,798
508,89	41,619
509,09	41,299
509,29	41,790
509,49	45,085
509,69	46,307
509,89	43,867
510,09	41,319
510,28	43,546
510,48	44,739
510,68	44,952
510,88	43,934
511,08	42,554
511,28	42,903
511,48	43,453
511,68	43,239
511,88	43,355
512,07	45,694
512,27	45,979
512,47	42,384
512,67	42,299
512,87	41,684
513,07	42,283
513,27	41,912
513,47	44,674
513,67	41,983
513,86	43,381
514,06	45,077
514,26	44,534
514,46	46,232
514,66	43,187
514,86	45,192
515,06	48,569
515,26	49,276
515,45	42,080
515,65	42,285
515,85	45,635
516,05	42,173
516,25	44,212
516,45	44,404
516,65	44,508
516,84	44,678
517,04	49,048
517,24	43,308
517,44	43,709
517,64	45,682
517,84	45,942
518,04	46,012
518,23	47,252
518,43	48,001
518,63	42,398
518,83	40,261
519,03	43,307
519,23	45,630
519,42	43,906
519,62	45,073
519,82	42,349
520,02	44,246
520,22	43,709
520,42	43,696
520,61	46,773
520,81	45,146
521,01	48,540
521,21	42,360
521,41	45,495
521,61	46,615
521,80	43,201
522,00	45,840
522,20	46,953
522,40	48,809
522,60	43,796
522,79	44,139
522,99	47,278
523,19	42,621
523,39	48,193
523,59	43,503
523,78	48,710
523,98	42,637
524,18	43,374
524,38	42,338
524,58	45,599
524,77	46,603
524,97	42,969
525,17	45,941
525,37	44,928
525,57	47,471
525,76	44,776
525,96	44,702
526,16	42,004
526,36	43,255
526,56	45,722
526,75	42,996
526,95	46,830
527,15	47,383
527,35	47,129
527,55	43,971
527,74	48,627
527,94	42,055
528,14	46,444
528,34	45,568
528,53	46,461
528,73	45,502
528,93	45,633
529,13	42,514
529,32	45,952
529,52	45,644
529,72	43,879
529,92	45,164
530,12	45,950
530,31	43,484
530,51	45,256
530,71	44,124
530,91	45,483
531,10	42,043
531,30	44,204
531,50	40,498
531,70	45,614
531,89	45,042
532,09	43,245
532,29	40,864
532,49	43,994
532,68	41,257
532,88	40,501
533,08	39,681
533,28	44,524
533,47	42,751
533,67	43,197
533,87	41,545
534,06	51,323
534,26	44,564
534,46	43,322
534,66	44,179
534,85	44,619
535,05	38,667
535,25	42,466
535,45	39,549
535,64	43,933
535,84	41,557
536,04	42,224
536,23	41,318
536,43	45,530
536,63	42,344
536,83	42,056
537,02	40,653
537,22	41,150
537,42	41,732
537,61	42,501
537,81	42,635
538,01	46,706
538,20	45,277
538,40	41,746
538,60	39,983
538,80	39,249
538,99	42,627
539,19	39,643
539,39	37,719
539,58	41,133
539,78	37,845
539,98	35,906
540,17	35,829
540,37	38,139
540,57	35,815
540,76	37,116
540,96	33,023
541,16	34,920
541,36	33,595
541,55	29,969
541,75	30,083
541,95	32,230
542,14	32,616
542,34	29,909
542,54	30,430
542,73	33,100
542,93	33,064
543,13	32,232
543,32	30,020
543,52	32,303
543,72	31,585
543,91	31,019
544,11	31,655
544,31	32,194
544,50	31,549
544,70	32,682
544,89	32,110
545,09	33,410
545,29	32,158
545,48	32,220
545,68	31,763
545,88	32,036
546,07	33,826
546,27	31,199
546,47	35,563
546,66	35,877
546,86	35,492
547,06	37,630
547,25	35,600
547,45	39,381
547,64	37,583
547,84	41,096
548,04	39,797
548,23	42,137
548,43	39,910
548,63	42,222
548,82	39,683
549,02	40,641
549,21	37,675
549,41	39,901
549,61	39,064
549,80	40,937
550,00	41,125
550,20	39,334
550,39	41,598
550,59	40,975
550,78	41,446
550,98	39,992
551,18	43,489
551,37	42,235
551,57	40,788
551,76	40,770
551,96	41,450
552,16	41,115
552,35	40,552
552,55	43,014
552,74	42,782
552,94	42,770
553,14	41,309
553,33	39,767
553,53	41,845
553,72	43,812
553,92	43,447
554,12	41,110
554,31	42,859
554,51	44,376
554,70	38,904
554,90	41,709
555,09	45,433
555,29	43,561
555,49	42,835
555,68	43,441
555,88	41,279
556,07	40,746
556,27	47,636
556,46	41,652
556,66	40,107
556,86	45,860
557,05	43,607
557,25	42,235
557,44	43,401
557,64	42,495
557,83	44,549
558,03	41,070
558,22	43,691
558,42	42,951
558,62	46,983
558,81	42,612
559,01	43,027
559,20	44,084
559,40	43,512
559,59	42,162
559,79	41,920
559,98	44,065
560,18	43,693
560,37	43,559
560,57	41,901
560,76	40,883
560,96	41,553
561,16	44,036
561,35	42,971
561,55	43,192
561,74	43,226
561,94	44,248
562,13	42,079
562,33	45,298
562,52	43,380
562,72	42,739
562,91	42,721
563,11	42,546
563,30	45,793
563,50	40,162
563,69	43,186
563,89	42,007
564,08	43,662
564,28	41,561
564,47	41,654
564,67	43,991
564,86	41,834
565,06	42,137
565,25	42,245
565,45	41,244
565,64	44,675
565,84	41,211
566,03	40,571
566,23	45,467
566,42	44,812
566,62	43,847
566,81	44,235
567,01	45,037
567,20	44,625
567,40	42,451
567,59	41,441
567,79	46,286
567,98	46,414
568,18	43,037
568,37	44,138
568,57	44,156
568,76	45,024
568,96	43,077
569,15	40,938
569,35	44,135
569,54	45,217
569,73	44,796
569,93	42,015
570,12	42,056
570,32	44,962
570,51	43,316
570,71	43,692
570,90	45,018
571,10	40,804
571,29	41,116
571,49	42,779
571,68	45,188
571,87	43,365
572,07	42,452
572,26	42,301
572,46	42,767
572,65	43,977
572,85	40,059
573,04	41,053
573,24	43,629
573,43	46,294
573,62	42,574
573,82	43,060
574,01	42,484
574,21	41,438
574,40	41,149
574,60	40,493
574,79	45,435
574,98	40,913
575,18	42,387
575,37	40,628
575,57	42,666
575,76	44,428
575,96	42,266
576,15	41,269
576,34	41,604
576,54	42,786
576,73	43,114
576,93	42,141
577,12	42,003
577,31	41,542
577,51	40,162
577,70	41,358
577,90	42,250
578,09	41,178
578,28	41,658
578,48	42,217
578,67	44,795
578,87	42,141
579,06	40,542
579,25	43,249
579,45	42,294
579,64	40,546
579,84	41,109
580,03	39,909
580,22	44,190
580,42	39,418
580,61	42,779
580,81	41,070
581,00	42,841
581,19	42,706
581,39	41,318
581,58	40,871
581,77	41,786
581,97	43,286
582,16	40,999
582,35	40,723
582,55	39,890
582,74	42,644
582,94	41,335
583,13	39,164
583,32	41,992
583,52	41,837
583,71	41,187
583,90	40,407
584,10	41,159
584,29	41,752
584,48	40,523
584,68	41,215
584,87	40,877
585,06	41,335
585,26	39,046
585,45	39,774
585,65	42,455
585,84	41,135
586,03	40,000
586,23	39,803
586,42	40,475
586,61	43,071
586,81	41,285
587,00	41,191
587,19	39,012
587,39	43,428
587,58	41,129
587,77	41,406
587,97	39,372
588,16	39,260
588,35	41,494
588,54	41,641
588,74	39,150
588,93	43,036
589,12	42,364
589,32	40,282
589,51	41,330
589,70	38,028
589,90	39,703
590,09	40,556
590,28	43,549
590,48	38,434
590,67	39,873
590,86	40,808
591,06	39,901
591,25	43,406
591,44	41,482
591,63	39,419
591,83	41,116
592,02	41,282
592,21	40,563
592,41	39,153
592,60	41,105
592,79	40,869
592,98	40,557
593,18	41,227
593,37	41,353
593,56	42,367
593,76	41,980
593,95	41,140
594,14	39,275
594,33	45,825
594,53	41,268
594,72	40,414
594,91	44,232
595,10	42,119
595,30	41,308
595,49	41,712
595,68	41,958
595,88	43,062
596,07	40,946
596,26	42,611
596,45	41,561
596,65	37,376
596,84	39,391
597,03	41,885
597,22	43,293
597,42	45,024
597,61	42,151
597,80	41,631
597,99	41,561
598,19	43,611
598,38	42,003
598,57	40,717
598,76	43,275
598,95	43,119
599,15	42,675
599,34	41,151
599,53	42,147
599,72	42,217
599,92	42,117
600,11	42,507
600,30	42,416
600,49	43,114
600,69	42,819
600,88	41,976
601,07	43,497
601,26	41,803
601,45	40,487
601,65	39,844
601,84	42,286
602,03	42,740
602,22	44,013
602,42	45,145
602,61	41,314
602,80	42,147
602,99	40,801
603,18	41,592
603,38	42,541
603,57	41,501
603,76	40,313
603,95	41,199
604,14	42,568
604,34	42,079
604,53	41,419
604,72	42,567
604,91	42,671
605,10	41,508
605,29	42,514
605,49	40,021
605,68	42,301
605,87	42,952
606,06	40,851
606,25	40,354
606,45	42,157
606,64	40,532
606,83	42,870
607,02	40,816
607,21	42,655
607,40	43,027
607,60	39,686
607,79	41,122
607,98	39,209
608,17	39,467
608,36	38,710
608,55	39,524
608,75	40,626
608,94	39,200
609,13	35,394
609,32	34,316
609,51	36,174
609,70	33,738
609,89	35,387
610,09	35,169
610,28	37,483
610,47	36,352
610,66	33,893
610,85	32,205
611,04	36,532
611,23	34,765
611,43	33,799
611,62	34,243
611,81	35,972
612,00	36,209
612,19	34,302
612,38	34,799
612,57	36,501
612,77	36,384
612,96	36,540
613,15	36,531
613,34	37,602
613,53	38,420
613,72	40,159
613,91	38,123
614,10	36,281
614,29	40,648
614,49	35,777
614,68	37,309
614,87	39,759
615,06	43,082
615,25	37,829
615,44	41,257
615,63	39,892
615,82	40,016
616,01	38,337
616,21	38,752
616,40	41,542
616,59	42,025
616,78	39,082
616,97	41,453
617,16	39,249
617,35	41,939
617,54	40,425
617,73	40,751
617,92	39,737
618,11	40,753
618,31	37,389
618,50	38,981
618,69	40,349
618,88	41,159
619,07	37,447
619,26	39,002
619,45	40,274
619,64	38,139
619,83	37,579
620,02	39,681
620,21	41,638
620,40	42,166
620,59	38,704
620,78	38,190
620,97	40,804
621,17	43,387
621,36	41,477
621,55	39,846
621,74	40,356
621,93	40,287
622,12	40,164
622,31	39,159
622,50	41,038
622,69	42,556
622,88	41,413
623,07	40,324
623,26	40,860
623,45	41,813
623,64	39,551
623,83	37,829
624,02	40,949
624,21	41,436
624,40	39,579
624,59	38,434
624,78	42,229
624,97	43,311
625,16	38,306
625,35	37,005
625,54	39,185
625,73	39,676
625,92	39,911
626,12	41,298
626,31	41,107
626,50	40,611
626,69	41,520
626,88	38,355
627,07	40,899
627,26	42,470
627,45	38,875
627,64	40,204
627,83	41,444
628,02	39,604
628,21	39,837
628,40	37,720
628,59	42,107
628,78	38,808
628,97	38,642
629,16	37,952
629,35	39,098
629,54	42,496
629,73	39,394
629,92	37,784
630,10	41,433
630,29	40,108
630,48	39,429
630,67	38,185
630,86	42,267
631,05	39,438
631,24	41,985
631,43	38,205
631,62	41,608
631,81	40,303
632,00	39,459
632,19	38,732
632,38	40,429
632,57	36,455
632,76	39,337
632,95	39,724
633,14	41,022
633,33	42,231
633,52	40,095
633,71	40,284
633,90	37,771
634,09	40,099
634,28	41,784
634,47	38,330
634,66	40,100
634,85	41,645
635,04	41,309
635,22	40,429
635,41	39,584
635,60	41,396
635,79	41,551
635,98	38,841
636,17	40,992
636,36	39,390
636,55	39,657
636,74	38,329
636,93	41,492
637,12	39,174
637,31	40,385
637,50	39,737
637,69	40,795
637,87	40,698
638,06	39,752
638,25	40,291
638,44	41,141
638,63	38,304
638,82	39,453
639,01	40,593
639,20	39,407
639,39	40,995
639,58	38,379
639,77	41,344
639,95	39,311
640,14	40,772
640,33	37,684
640,52	40,787
640,71	43,620
640,90	39,928
641,09	40,919
641,28	39,488
641,47	42,143
641,66	40,552
641,84	39,989
642,03	37,621
642,22	40,006
642,41	42,993
642,60	39,876
642,79	40,266
642,98	42,733
643,17	39,474
643,35	39,680
643,54	40,459
643,73	41,705
643,92	41,186
644,11	39,559
644,30	41,343
644,49	41,718
644,67	38,248
644,86	36,573
645,05	40,881
645,24	39,034
645,43	39,909
645,62	39,133
645,81	40,311
645,99	41,774
646,18	41,751
646,37	38,610
646,56	40,372
646,75	41,401
646,94	43,160
647,13	38,669
647,31	38,370
647,50	39,845
647,69	41,670
647,88	40,662
648,07	40,950
648,26	43,500
648,44	39,591
648,63	38,441
648,82	39,509
649,01	41,670
649,20	39,984
649,38	40,336
649,57	39,189
649,76	36,986
649,95	40,541
650,14	37,815
650,33	38,977
650,51	40,389
650,70	42,314
650,89	39,472
651,08	40,275
651,27	39,244
651,45	38,979
651,64	38,856
651,83	40,579
652,02	40,401
652,21	41,521
652,39	40,180
652,58	40,571
652,77	39,874
652,96	41,729
653,15	39,990
653,33	41,207
653,52	41,485
653,71	41,179
653,90	39,898
654,09	41,155
654,27	41,438
654,46	42,038
654,65	40,492
654,84	41,464
655,02	41,408
655,21	41,616
655,40	42,012
655,59	41,313
655,77	41,929
655,96	39,302
656,15	41,207
656,34	41,818
656,53	40,700
656,71	41,848
656,90	41,101
657,09	41,615
657,28	42,804
657,46	40,049
657,65	41,247
657,84	40,255
658,03	41,294
658,21	40,564
658,40	39,520
658,59	40,253
658,78	41,743
658,96	40,226
659,15	39,922
659,34	39,232
659,52	41,203
659,71	41,322
659,90	38,673
660,09	39,608
660,27	40,786
660,46	41,972
660,65	39,216
660,84	38,332
661,02	40,881
661,21	40,673
661,40	40,481
661,58	39,939
661,77	41,276
661,96	36,026
662,15	38,842
662,33	38,005
662,52	40,113
662,71	39,249
662,89	37,186
663,08	38,481
663,27	39,448
663,45	38,252
663,64	39,255
663,83	36,362
664,02	38,934
664,20	40,361
664,39	37,686
664,58	39,860
664,76	39,830
664,95	39,456
665,14	38,763
665,32	37,036
665,51	40,453
665,70	40,715
665,88	40,498
666,07	40,189
666,26	41,236
666,44	40,566
666,63	36,516
666,82	38,140
667,00	41,522
667,19	38,118
667,38	39,486
667,56	40,451
667,75	40,234
667,94	41,479
668,12	39,108
668,31	39,184
668,50	39,095
668,68	40,822
668,87	39,095
669,06	38,691
669,24	40,429
669,43	37,840
669,62	37,272
669,80	36,636
669,99	39,187
670,18	39,675
670,36	37,854
670,55	39,714
670,74	37,904
670,92	37,197
671,11	39,318
671,29	38,594
671,48	39,106
671,67	38,339
671,85	40,446
672,04	37,521
672,23	36,915
672,41	38,686
672,60	37,890
672,78	37,507
672,97	39,387
673,16	39,038
673,34	38,619
673,53	38,456
673,71	39,210
673,90	40,228
674,09	38,587
674,27	37,298
674,46	38,200
674,64	40,291
674,83	38,811
675,02	35,937
675,20	38,469
675,39	38,714
675,57	39,022
675,76	37,469
675,95	42,011
676,13	39,695
676,32	38,818
676,50	38,301
676,69	36,323
676,88	39,013
677,06	38,157
677,25	39,001
677,43	42,625
677,62	39,399
677,80	37,217
677,99	39,048
678,18	40,731
678,36	41,215
678,55	36,607
678,73	35,976
678,92	38,941
679,10	40,011
679,29	38,681
679,48	37,218
679,66	37,929
679,85	39,949
680,03	35,856
680,22	37,952
680,40	36,867
680,59	38,640
680,77	37,319
680,96	38,208
681,15	40,024
681,33	39,813
681,52	36,990
681,70	38,888
681,89	41,106
682,07	39,699
682,26	38,075
682,44	38,657
682,63	39,622
682,81	40,022
683,00	39,268
683,18	36,355
683,37	40,357
683,55	38,629
683,74	38,071
683,92	42,115
684,11	38,761
684,29	41,172
684,48	35,161
684,67	37,276
684,85	38,542
685,04	39,493
685,22	38,495
685,41	38,729
685,59	40,195
685,78	38,304
685,96	38,721
686,15	36,996
686,33	37,679
686,52	38,355
686,70	39,489
686,89	39,315
687,07	39,800
687,26	38,536
687,44	40,312
687,62	37,946
687,81	40,523
687,99	38,783
688,18	38,509
688,36	39,753
688,55	40,647
688,73	38,693
688,92	37,058
689,10	39,572
689,29	40,899
689,47	41,851
689,66	37,524
689,84	38,347
690,03	41,392
690,21	38,850
690,40	39,178
690,58	37,265
690,76	36,341
690,95	41,771
691,13	37,115
691,32	39,123
691,50	40,722
691,69	40,140
691,87	38,778
692,06	38,873
692,24	38,088
692,43	39,965
692,61	37,223
692,79	38,160
692,98	37,760
693,16	41,524
693,35	38,919
693,53	39,650
693,72	40,513
693,90	41,294
694,08	39,608
694,27	38,225
694,45	41,837
694,64	42,275
694,82	39,628
695,01	37,907
695,19	39,696
695,37	38,211
695,56	39,056
695,74	40,584
695,93	42,532
696,11	37,717
696,29	41,714
696,48	40,338
696,66	40,399
696,85	41,433
697,03	38,119
697,21	40,483
697,40	40,976
697,58	39,397
697,77	38,211
697,95	39,163
698,13	41,584
698,32	39,113
698,50	40,046
698,69	38,797
698,87	39,226
699,05	39,771
699,24	38,203
699,42	39,105
699,60	37,932
699,79	38,464
699,97	39,048
700,16	37,053
700,34	41,128
700,52	37,772
700,71	39,199
700,89	38,192
701,07	40,615
701,26	39,619
701,44	38,936
701,63	38,414
701,81	39,346
701,99	41,743
702,18	39,264
702,36	38,673
702,54	38,959
702,73	38,799
702,91	38,948
703,09	38,091
703,28	39,168
703,46	39,728
703,64	38,598
703,83	39,789
704,01	40,555
704,19	38,394
704,38	36,863
704,56	37,994
704,74	39,649
704,93	38,741
705,11	39,008
705,29	38,018
705,48	44,129
705,66	40,003
705,84	39,723
706,03	36,385
706,21	39,809
706,39	38,996
706,58	38,416
706,76	38,427
706,94	39,378
707,12	39,251
707,31	36,435
707,49	38,354
707,67	38,343
707,86	41,974
708,04	38,443
708,22	37,225
708,41	39,635
708,59	39,592
708,77	37,720
708,95	39,904
709,14	41,699
709,32	40,418
709,50	37,359
709,69	39,082
709,87	38,613
710,05	39,456
710,23	36,713
710,42	36,856
710,60	38,955
710,78	41,171
710,97	38,701
711,15	38,661
711,33	41,333
711,51	37,508
711,70	37,092
711,88	37,767
712,06	40,389
712,24	40,825
712,43	38,182
712,61	37,889
712,79	38,865
712,97	38,275
713,16	39,074
713,34	38,415
713,52	39,883
713,70	39,016
713,89	39,164
714,07	38,780
714,25	39,718
714,43	39,232
714,62	37,825
714,80	37,892
714,98	35,690
715,16	39,434
715,35	36,997
715,53	36,490
715,71	40,328
715,89	42,420
716,07	38,899
716,26	43,718
716,44	40,118
716,62	39,313
716,80	37,999
716,99	38,528
717,17	41,655
717,35	40,027
717,53	38,290
717,71	38,298
717,90	40,165
718,08	38,677
718,26	36,443
718,44	39,445
718,62	39,363
718,81	39,228
718,99	37,941
719,17	40,090
719,35	40,323
719,53	38,938
719,72	39,237
719,90	38,492
720,08	37,888
720,26	40,954
720,44	36,879
720,62	38,503
720,81	41,696
720,99	41,514
721,17	38,109
721,35	39,077
721,53	38,558
721,72	41,532
721,90	39,287
722,08	38,215
722,26	40,534
722,44	40,290
722,62	39,264
722,81	37,303
722,99	38,164
723,17	39,255
723,35	38,426
723,53	39,446
723,71	43,143
723,89	42,426
724,08	37,532
724,26	38,591
724,44	39,068
724,62	39,642
724,80	37,404
724,98	39,922
725,16	42,053
725,35	38,071
725,53	36,430
725,71	37,312
725,89	39,062
726,07	42,676
726,25	42,807
726,43	37,139
726,61	40,582
726,80	40,927
726,98	37,636
727,16	38,621
727,34	40,446
727,52	39,663
727,70	36,976
727,88	38,304
728,06	37,065
728,25	37,254
728,43	38,009
728,61	39,895
728,79	40,038
728,97	40,624
729,15	39,062
729,33	40,038
729,51	39,367
729,69	39,661
729,87	39,320
730,06	38,539
730,24	40,084
730,42	41,488
730,60	37,814
730,78	37,940
730,96	38,629
731,14	39,024
731,32	38,714
731,50	37,115
731,68	39,508
731,86	40,060
732,04	39,718
732,22	38,794
732,41	42,654
732,59	39,387
732,77	41,080
732,95	41,071
733,13	42,840
733,31	39,224
733,49	39,402
733,67	40,099
733,85	40,443
734,03	38,969
734,21	39,516
734,39	38,798
734,57	41,620
734,75	38,335
734,93	36,514
735,11	39,189
735,29	36,893
735,47	43,213
735,65	37,424
735,84	37,692
736,02	37,985
736,20	40,807
736,38	37,263
736,56	39,146
736,74	39,038
736,92	38,941
737,10	39,192
737,28	40,338
737,46	40,228
737,64	38,157
737,82	39,419
738,00	39,983
738,18	40,508
738,36	37,592
738,54	38,399
738,72	38,167
738,90	38,599
739,08	39,581
739,26	36,618
739,44	40,038
739,62	40,142
739,80	41,244
739,98	39,082
740,16	37,331
740,34	38,695
740,52	41,205
740,70	37,469
740,88	37,298
741,06	40,234
741,24	39,422
741,42	40,333
741,60	38,550
741,78	41,493
741,96	40,425
742,14	38,014
742,32	36,384
742,50	39,295
742,68	41,166
742,86	40,296
743,04	37,664
743,21	41,468
743,39	39,151
743,57	37,746
743,75	38,065
743,93	37,233
744,11	37,061
744,29	35,856
744,47	38,307
744,65	39,016
744,83	38,000
745,01	38,709
745,19	38,321
745,37	42,359
745,55	39,887
745,73	38,646
745,91	36,298
746,09	37,924
746,27	39,150
746,45	35,774
746,62	39,381
746,80	38,828
746,98	39,877
747,16	39,057
747,34	39,644
747,52	36,896
747,70	38,286
747,88	39,162
748,06	37,950
748,24	41,125
748,42	41,560
748,60	38,522
748,78	37,761
748,95	41,590
749,13	41,744
749,31	38,415
749,49	39,392
749,67	39,589
749,85	41,145
750,03	39,012
750,21	38,592
750,39	38,893
750,57	39,813
750,74	39,190
750,92	38,149
751,10	42,592
751,28	37,419
751,46	39,361
751,64	37,663
751,82	39,386
752,00	41,380
752,17	39,065
752,35	37,247
752,53	39,697
752,71	39,757
752,89	39,494
753,07	40,481
753,25	40,862
753,43	37,719
753,60	41,163
753,78	38,121
753,96	40,462
754,14	40,298
754,32	41,117
754,50	40,542
754,68	41,243
754,85	39,630
755,03	40,438
755,21	40,189
755,39	40,797
755,57	40,684
755,75	38,325
755,92	38,636
756,10	40,255
756,28	41,322
756,46	36,637
756,64	38,174
756,82	43,156
756,99	39,127
757,17	36,962
757,35	39,867
757,53	42,665
757,71	42,314
757,89	38,554
758,06	39,193
758,24	38,489
758,42	37,099
758,60	37,231
758,78	37,347
758,95	38,943
759,13	40,714
759,31	38,098
759,49	37,693
759,67	39,605
759,84	37,951
760,02	38,905
760,20	39,170
760,38	41,394
760,56	39,461
760,73	37,686
760,91	39,199
761,09	41,476
761,27	38,671
761,45	38,480
761,62	37,884
761,80	38,764
761,98	40,366
762,16	38,781
762,33	38,662
762,51	41,771
762,69	38,960
762,87	37,261
763,05	40,352
763,22	38,300
763,40	39,709
763,58	38,774
763,76	38,227
763,93	42,192
764,11	42,044
764,29	38,203
764,47	39,272
764,64	40,073
764,82	42,268
765,00	39,534
765,18	36,211
765,35	37,858
765,53	38,649
765,71	38,304
765,89	37,451
766,06	38,405
766,24	39,409
766,42	40,356
766,60	38,396
766,77	39,898
766,95	37,779
767,13	39,218
767,30	39,470
767,48	38,265
767,66	40,211
767,84	36,891
768,01	39,862
768,19	42,410
768,37	38,383
768,54	38,132
768,72	39,419
768,90	41,014
769,08	41,472
769,25	38,604
769,43	39,126
769,61	36,499
769,78	39,464
769,96	37,893
770,14	40,420
770,31	41,681
770,49	41,953
770,67	38,312
770,85	37,922
771,02	40,026
771,20	38,122
771,38	42,170
771,55	39,137
771,73	38,583
771,91	41,975
772,08	41,757
772,26	40,649
772,44	38,561
772,61	40,209
772,79	37,404
772,97	37,591
773,14	38,577
773,32	42,254
773,50	38,476
773,67	36,403
773,85	42,459
774,03	41,305
774,20	36,201
774,38	38,447
774,56	39,751
774,73	37,136
774,91	39,102
775,09	38,934
775,26	41,484
775,44	40,803
775,61	42,498
775,79	35,332
775,97	42,338
776,14	39,397
776,32	38,444
776,50	38,647
776,67	42,413
776,85	42,390
777,03	37,443
777,20	39,003
777,38	40,683
777,55	40,208
777,73	39,024
777,91	37,955
778,08	40,191
778,26	38,897
778,43	39,325
778,61	36,615
778,79	38,602
778,96	38,323
779,14	38,327
779,32	38,560
779,49	39,739
779,67	43,531
779,84	39,410
780,02	39,445
780,20	37,129
780,37	42,477
780,55	38,295
780,72	41,949
780,90	42,389
781,07	42,195
781,25	37,873
781,43	38,626
781,60	38,545
781,78	38,702
781,95	40,354
782,13	40,662
782,30	41,403
782,48	42,947
782,66	38,744
782,83	36,528
783,01	45,264
783,18	43,441
783,36	43,522
783,53	38,789
783,71	39,597
783,89	39,973
784,06	39,850
784,24	38,205
784,41	39,378
784,59	41,029
784,76	42,393
784,94	41,145
785,11	42,433
785,29	39,692
785,46	39,368
785,64	40,211
785,82	40,296
785,99	42,866
786,17	39,933
786,34	40,052
786,52	42,644
786,69	43,228
786,87	41,065
787,04	38,941
787,22	39,676
787,39	39,930
787,57	41,174
787,74	40,378
787,92	42,826
788,09	41,476
788,27	40,283
788,44	37,575
788,62	42,605
788,79	41,676
788,97	42,846
789,14	39,892
789,32	40,467
789,49	38,932
789,67	38,418
789,84	39,579
790,02	40,376
790,19	40,506
790,37	40,505
790,54	39,926
790,72	45,553
790,89	44,401
791,07	41,462
791,24	37,889
791,42	42,120
791,59	41,432
791,77	41,492
791,94	39,872
792,12	40,235
792,29	42,262
792,47	39,912
792,64	44,454
792,81	42,764
792,99	38,533
793,16	41,773
793,34	42,920
793,51	41,347
793,69	45,075
793,86	39,255
794,04	37,508
794,21	44,567
794,39	37,105
794,56	43,549
794,73	42,742
794,91	41,416
795,08	42,114
795,26	41,992
795,43	41,025
795,61	42,267
795,78	42,837
795,95	40,691
796,13	44,458
796,30	43,667
796,48	38,852
796,65	40,576
796,83	42,974
797,00	45,333
797,17	38,493
797,35	41,349
797,52	39,615
797,70	45,179
797,87	43,098
798,04	37,946
798,22	42,106
798,39	40,622
798,57	42,185
798,74	40,743
798,91	41,963
799,09	39,861
799,26	42,975
799,44	42,685
799,61	36,977
799,78	44,155
799,96	45,073
800,13	41,823
800,31	41,409
800,48	44,970
800,65	48,023
800,83	38,718
801,00	40,241
801,17	41,048
801,35	40,353
801,52	43,879
801,70	40,656
801,87	41,828
802,04	45,234
802,22	38,222
802,39	39,573
802,56	46,368
802,74	42,969
802,91	42,125
803,08	42,780
803,26	40,889
803,43	46,490
803,61	37,629
803,78	38,793
803,95	44,610
804,13	45,052
804,30	38,992
804,47	44,019
804,65	45,271
804,82	42,469
804,99	40,921
805,17	42,662
805,34	47,575
805,51	47,903
805,69	38,242
805,86	34,369
806,03	46,941
806,21	44,075
806,38	41,524
806,55	40,370
806,72	46,650
806,90	44,886
807,07	40,632
807,24	44,119
807,42	42,349
807,59	44,136
807,76	40,118
807,94	43,137
808,11	49,489
808,28	49,977
808,45	41,937
808,63	44,469
808,80	46,484
808,97	41,158
809,15	43,057
809,32	47,523
809,49	38,525
809,67	44,924
809,84	41,951
810,01	48,105
810,18	54,536
810,36	50,507
810,53	45,813
810,70	41,758
810,87	46,387
811,05	40,439
811,22	42,997
811,39	42,209
811,57	47,430
811,74	45,985
811,91	41,455
812,08	42,378
812,26	46,960
812,43	43,304
812,60	43,629
812,77	40,115
812,95	47,335
813,12	47,036
813,29	39,545
813,46	48,613
813,64	45,654
813,81	45,205
813,98	40,244
814,15	47,546
814,32	48,485
814,50	49,065
814,67	43,687
814,84	48,317
815,01	45,228
815,19	39,936
815,36	38,959
815,53	39,467
815,70	42,997
815,87	48,991
816,05	35,115
816,22	40,532
816,39	48,688
816,56	49,117
816,74	44,304
816,91	38,522
817,08	47,911
817,25	44,321
817,42	45,258
817,60	39,495
817,77	43,671
817,94	46,305
818,11	40,815
818,28	47,871
818,45	47,054
818,63	43,911
818,80	44,616
818,97	40,823
819,14	51,292
819,31	50,920
819,49	48,297
819,66	37,731
819,83	45,957
820,00	48,216
820,17	39,905
820,34	44,423
820,52	49,413
820,69	47,531
820,86	46,765
821,03	41,953
821,20	52,522
821,37	49,092
821,55	38,790
821,72	43,083
821,89	49,243
822,06	50,015
822,23	41,408
822,40	43,922
822,57	48,084
822,75	50,990
822,92	43,826
823,09	44,409
823,26	47,294
823,43	51,888
823,60	44,280
823,77	41,033
823,94	57,416
824,12	54,694
824,29	45,055
824,46	37,763
824,63	53,006
824,80	49,428
824,97	45,734
825,14	45,984
825,31	51,216
825,49	46,553
825,66	36,238
825,83	46,498
826,00	45,643
826,17	57,924
826,34	44,303
826,51	34,325
826,68	39,554
826,85	49,225
827,02	42,912
827,20	38,633
827,37	48,857
827,54	46,188
827,71	45,936
827,88	49,035
828,05	56,138
828,22	49,914
828,39	48,895
828,56	51,523
828,73	49,186
828,90	55,662
829,07	48,328
829,25	43,442
829,42	47,773
829,59	49,905
829,76	43,461
829,93	43,781
830,10	47,791
830,27	46,043
830,44	44,756
830,61	46,838
830,78	57,754
830,95	53,131
831,12	41,964
831,29	41,670
831,46	47,769
831,63	47,514
831,80	42,466
831,97	43,054
832,14	54,732
832,31	60,930
832,48	46,583
832,65	47,571
832,83	47,709
833,00	50,600
833,17	45,866
833,34	44,309
833,51	48,394
833,68	58,237
833,85	50,520
834,02	45,061
834,19	50,695
834,36	48,006
834,53	42,180
834,70	47,151
834,87	65,683
835,04	47,454
835,21	45,366
835,38	40,140
835,55	53,887
835,72	61,318
835,89	44,317
836,06	52,062
836,23	64,304
836,40	36,680
836,57	38,823
836,74	49,051
836,91	54,784
837,08	53,696
837,25	50,435
837,42	35,214
837,59	48,241
837,76	56,032
837,93	39,398
838,09	35,670
838,26	50,398
838,43	67,493
838,60	48,926
838,77	45,761
838,94	51,406
839,11	43,741
839,28	43,044
839,45	43,437
839,62	55,914
839,79	54,915
839,96	55,274
840,13	54,296
840,30	45,544
840,47	48,388
840,64	36,607
840,81	52,600
840,98	50,831
841,15	59,447
841,32	43,138
841,48	57,374
841,65	48,874
841,82	57,618
841,99	48,735
842,16	43,408
842,33	48,656
842,50	53,394
842,67	45,055
842,84	47,341
843,01	50,915
843,18	53,640
843,35	45,664
843,52	42,843
843,68	52,260
843,85	51,109
844,02	40,598
844,19	41,633
844,36	61,321
844,53	65,761
844,70	53,297
844,87	55,589
845,04	57,306
845,21	37,610
845,37	59,869
845,54	51,371
845,71	44,960
845,88	74,096
846,05	41,815
846,22	37,384
846,39	51,632
846,56	55,914
846,72	39,728
846,89	46,103
847,06	65,507
847,23	63,046
847,40	45,954
847,57	36,128
847,74	56,373
847,90	61,790
848,07	55,787
848,24	44,703
848,41	58,181
848,58	62,461
848,75	43,694
848,92	52,839
849,08	51,714
849,25	50,533
849,42	43,015
849,59	60,175
849,76	57,551
849,93	49,640
850,09	58,210
850,26	43,585
850,43	67,309
850,60	55,996
850,77	49,842
850,94	54,193
851,10	53,342
851,27	52,273
851,44	47,993
851,61	53,550
851,78	67,845
851,95	67,212
852,11	49,982
852,28	40,400
852,45	55,273
852,62	59,686
852,79	44,448
852,95	46,218
853,12	57,671
853,29	47,120
853,46	46,151
853,63	56,955
853,79	49,982
853,96	53,777
854,13	59,620
854,30	53,618
854,46	81,728
854,63	52,580
854,80	55,599
854,97	49,924
855,14	58,124
855,30	66,759
855,47	40,924
855,64	53,095
855,81	61,429
855,97	75,011
856,14	58,034
856,31	37,431
856,48	65,932
856,65	66,687
856,81	51,695
856,98	48,187
857,15	38,743
857,32	62,359
857,48	43,057
857,65	54,997
857,82	59,272
857,99	68,351
858,15	54,732
858,32	56,675
858,49	66,449
858,65	75,705
858,82	56,484
858,99	64,805
859,16	66,957
859,32	64,653
859,49	51,616
859,66	53,100
859,83	71,319
859,99	50,870
860,16	60,424
860,33	52,694
860,49	71,890
860,66	69,203
860,83	60,476
861,00	51,494
861,16	68,455
861,33	61,700
861,50	43,035
861,66	35,455
861,83	84,115
862,00	50,045
862,16	58,400
862,33	51,215
862,50	112,206
862,67	53,797
862,83	39,773
863,00	73,077
863,17	68,194
863,33	65,781
863,50	29,488
863,67	37,685
863,83	67,288
864,00	76,160
864,17	39,460
864,33	60,622
864,50	70,466
864,67	65,354
864,83	52,487
865,00	57,653
865,17	63,012
865,33	73,644
865,50	35,332
865,67	36,488
865,83	79,156
866,00	104,430
866,17	66,097
866,33	65,564
866,50	88,820
866,66	74,797
866,83	70,244
867,00	80,785
867,16	86,578
867,33	105,929
867,50	25,067
867,66	50,593
867,83	81,193
868,00	68,365
868,16	54,925
868,33	52,436
868,49	68,421
868,66	83,912
868,83	64,473
868,99	82,670
869,16	75,261
869,32	81,947
869,49	53,306
869,66	43,266
869,82	95,872
869,99	93,629
870,15	35,049
870,32	92,686
870,49	86,014
870,65	153,066
870,82	54,129
870,98	69,014
871,15	101,254
871,32	70,313
871,48	21,513
871,65	32,942
871,81	81,176
871,98	39,127
872,15	25,182
872,31	29,520
872,48	136,366
872,64	70,300
872,81	35,852
872,97	53,340
873,14	96,705
873,31	103,399
873,47	83,859
873,64	55,032
873,80	116,839
873,97	115,790
874,13	38,012
874,30	53,953
874,46	70,992
874,63	87,640
874,80	50,227
874,96	25,944
875,13	129,263
875,29	54,199
875,46	103,976
875,62	56,654
875,79	101,633
875,95	97,445
876,12	51,703
876,28	12,810
876,45	113,659
876,61	67,915
876,78	47,454
876,94	70,291
877,11	101,070
877,27	123,222
877,44	112,581
877,60	89,223
877,77	119,891
877,94	142,404
878,10	66,989
878,27	87,015
878,43	120,032
878,60	65,813
878,76	68,407
878,93	95,700
879,09	114,894
879,26	114,776
879,42	85,659
879,58	79,159
879,75	142,937
879,91	118,494
880,08	-43,466
880,24	62,526
880,41	71,593
880,57	125,062
880,74	43,441
880,90	110,975
881,07	95,531
881,23	156,011
881,40	74,878
881,56	72,105
881,73	136,366
881,89	122,228
882,06	-31,548
882,22	162,381
882,38	154,026
882,55	184,024
882,71	69,860
882,88	101,822
883,04	158,528
883,21	170,983
883,37	74,939
883,54	92,963
883,70	242,428
883,86	150,615
884,03	103,553
884,19	32,668
884,36	182,712
884,52	149,941
884,69	41,208
884,85	33,386
885,01	198,911
885,18	143,500
885,34	120,135
885,51	33,711
885,67	131,128
>>>>> Data<<<<< Espectral Procesado Extremo
