Fichero De Datos De SpectraSuite
++++++++++++++++++++++++++++++++++++
Fecha: Wed Apr 22 13:28:40 CEST 2009
Usuario: evoflor
Presente Oscuro Del Espectro: Sí
La Referencia de Presente Del Espectro De: Sí
Muestreados de los componentes de Número de espectros: 1
Espectrómetros: USB4F02353
Tiempo de integración (usec): 500000 (USB4F02353)
Promedio de Espectros Hechos un: 5 (USB4F02353)
El Alisar Del Furgón: 0 (USB4F02353)
Párrafo de de Corregir del la del del de Eléctrica del obscuridad: Sí (USB4F02353)
Estrobo/Lámpara Permitido: No (USB4F02353)
Correct for Detector Non-linearity: No (USB4F02353)
Párrafo de de Corregir del la del del de Externa del luz: No (USB4F02353)
Procesado del espectro de Número de pixeles en: 3648
>>>>> Comienza Data<<<<< Espectral Procesado Del EL
177,79	294,587
178,00	294,587
178,22	294,587
178,44	1709,890
178,66	-429,443
178,88	333,876
179,09	-620,851
179,31	313,217
179,53	825,077
179,75	282,229
179,96	1304,310
180,18	-249,538
180,40	530,573
180,62	425,199
180,83	-271,074
181,05	-1713,415
181,27	-100900,000
181,49	-86,304
181,70	388,077
181,92	635,533
182,14	431,325
182,36	70,363
182,58	53,000
182,79	1258,036
183,01	-100,775
183,23	257,864
183,45	-69,538
183,66	19,469
183,88	551,176
184,10	-2898,182
184,32	258,663
184,53	307,081
184,75	-248,122
184,97	-9,680
185,18	-248,872
185,40	-463,462
185,62	202,143
185,84	70,961
186,05	81,717
186,27	-217,633
186,49	2184,615
186,71	25,914
186,92	207,981
187,14	-325,648
187,36	147,043
187,58	127,166
187,79	-117,781
188,01	423,029
188,23	-204,830
188,45	83,762
188,66	201,339
188,88	-2832,727
189,10	-2035,000
189,31	-17,065
189,53	-52,372
189,75	329,545
189,97	118,077
190,18	-204,292
190,40	424,118
190,62	-251,889
190,83	-313,619
191,05	126,073
191,27	-2,286
191,49	381,188
191,70	-303,365
191,92	-687,288
192,14	-77,620
192,35	936,074
192,57	5325,714
192,79	-74,946
193,01	253,770
193,22	101,969
193,44	-182,935
193,66	110,680
193,87	219,914
194,09	-9,902
194,31	238,698
194,53	737,063
194,74	143,871
194,96	38,107
195,18	195,018
195,39	-532,190
195,61	-148,716
195,83	-299,565
196,04	157,057
196,26	-167,839
196,48	-56,234
196,70	256,064
196,91	163,208
197,13	223,544
197,35	59,359
197,56	507,430
197,78	1236,567
198,00	862,937
198,21	599,029
198,43	-1251,163
198,65	180,271
198,86	282,014
199,08	212,787
199,30	93,117
199,51	-363,844
199,73	210,699
199,95	314,356
200,16	876,154
200,38	331,729
200,60	138,802
200,81	258,458
201,03	54,076
201,25	-2197,000
201,46	210,829
201,68	153,629
201,90	3131,818
202,11	-350,763
202,33	108,438
202,55	-471,250
202,76	-104,119
202,98	445,645
203,20	220,192
203,41	-431,579
203,63	169,222
203,85	-154900,000
204,06	169,374
204,28	53,976
204,50	177,463
204,71	214,841
204,93	353,600
205,15	255,120
205,36	-96,558
205,58	100,384
205,80	-175,671
206,01	122,326
206,23	197,865
206,45	214,957
206,66	161,697
206,88	39,160
207,10	204,773
207,31	385,166
207,53	110,857
207,75	148,684
207,96	1995,522
208,18	-247,440
208,39	106,422
208,61	4837,143
208,83	-440,620
209,04	310,493
209,26	-203,687
209,48	307,952
209,69	130,806
209,91	596,284
210,13	88,139
210,34	239,952
210,56	220,274
210,77	-1602,362
210,99	144,886
211,21	8000,000
211,42	-178,832
211,64	-35,162
211,86	203,437
212,07	251,156
212,29	254,044
212,50	141,675
212,72	59,231
212,94	178,196
213,15	165,574
213,37	93,822
213,58	-22,173
213,80	-3764,286
214,02	15252,941
214,23	272,810
214,45	62,295
214,67	-934,146
214,88	-72,819
215,10	-429,577
215,31	-64,629
215,53	-3,864
215,75	183,304
215,96	1644,099
216,18	432,394
216,39	221,697
216,61	581,878
216,83	984,821
217,04	2246,067
217,26	-10,000
217,47	141,200
217,69	317,464
217,91	-171,907
218,12	-98200,000
218,34	232,339
218,55	613,793
218,77	29,106
218,99	158,818
219,20	-260,027
219,42	607,927
219,63	-194,030
219,85	-148,682
220,06	-68,846
220,28	299,529
220,50	67,257
220,71	45,629
220,93	3907,547
221,14	-1909,000
221,36	-70,746
221,58	57,091
221,79	346,731
222,01	1420,690
222,22	788,158
222,44	31,461
222,65	167,279
222,87	504,196
223,09	118,785
223,30	57,950
223,52	166,927
223,73	196,744
223,95	-54,366
224,16	323,093
224,38	369,194
224,60	75,661
224,81	269,606
225,03	145,815
225,24	210,981
225,46	125,748
225,67	0,078
225,89	4,843
226,10	645,482
226,32	879,200
226,54	20,687
226,75	40,367
226,97	167,068
227,18	202,970
227,40	-97,929
227,61	49,816
227,83	10,476
228,04	179,336
228,26	62,803
228,47	75,704
228,69	298,307
228,91	148,461
229,12	65,280
229,34	35,717
229,55	71,779
229,77	5,770
229,98	4,911
230,20	78,275
230,41	-12,442
230,63	151,726
230,84	21,668
231,06	16,116
231,27	43,441
231,49	88,408
231,71	26,716
231,92	25,876
232,14	30,882
232,35	73,300
232,57	42,615
232,78	2,422
233,00	69,743
233,21	51,033
233,43	22,638
233,64	13,498
233,86	51,097
234,07	56,416
234,29	15,507
234,50	4,466
234,72	61,276
234,93	37,403
235,15	19,227
235,36	30,322
235,58	49,152
235,79	56,305
236,01	40,905
236,22	10,243
236,44	41,552
236,65	25,105
236,87	23,532
237,08	5,731
237,30	10,995
237,51	31,502
237,73	0,835
237,94	10,163
238,16	11,978
238,37	16,988
238,59	14,802
238,80	27,059
239,02	11,735
239,23	29,458
239,45	10,638
239,66	26,016
239,88	42,843
240,09	20,976
240,31	9,405
240,52	15,338
240,74	14,933
240,95	17,587
241,17	8,419
241,38	3,868
241,60	18,798
241,81	34,426
242,03	3,162
242,24	7,739
242,46	22,315
242,67	9,664
242,89	13,486
243,10	17,789
243,32	24,612
243,53	23,229
243,75	15,880
243,96	6,695
244,18	13,765
244,39	19,379
244,60	8,132
244,82	3,013
245,03	23,461
245,25	13,924
245,46	33,617
245,68	11,673
245,89	19,346
246,11	16,731
246,32	12,467
246,54	9,874
246,75	15,550
246,97	16,382
247,18	24,388
247,39	10,810
247,61	7,918
247,82	16,601
248,04	10,560
248,25	12,239
248,47	19,305
248,68	18,868
248,90	7,137
249,11	7,926
249,33	21,712
249,54	11,000
249,75	11,765
249,97	8,185
250,18	19,120
250,40	16,267
250,61	-2,849
250,83	6,716
251,04	-0,743
251,25	17,946
251,47	-1,856
251,68	17,465
251,90	17,421
252,11	12,744
252,33	5,979
252,54	15,167
252,76	8,761
252,97	6,339
253,18	2,921
253,40	9,811
253,61	7,084
253,83	11,328
254,04	13,737
254,25	7,739
254,47	2,511
254,68	13,289
254,90	8,572
255,11	8,082
255,33	12,197
255,54	4,088
255,75	9,580
255,97	8,066
256,18	6,390
256,40	7,184
256,61	13,138
256,82	5,001
257,04	17,804
257,25	7,333
257,47	7,495
257,68	9,383
257,89	14,899
258,11	12,805
258,32	11,376
258,54	8,300
258,75	11,463
258,96	16,425
259,18	4,281
259,39	9,069
259,61	11,028
259,82	5,051
260,03	11,578
260,25	9,191
260,46	8,450
260,68	9,346
260,89	4,805
261,10	6,037
261,32	8,473
261,53	10,856
261,75	6,157
261,96	2,915
262,17	12,820
262,39	11,496
262,60	5,253
262,81	1,375
263,03	13,267
263,24	7,235
263,46	4,515
263,67	8,497
263,88	9,404
264,10	9,333
264,31	2,244
264,52	6,515
264,74	12,872
264,95	5,733
265,17	9,803
265,38	8,593
265,59	12,888
265,81	10,246
266,02	1,597
266,23	8,635
266,45	14,263
266,66	16,076
266,87	9,908
267,09	6,528
267,30	13,428
267,52	14,866
267,73	6,432
267,94	8,071
268,16	8,960
268,37	5,426
268,58	11,990
268,80	8,381
269,01	8,459
269,22	10,429
269,44	8,913
269,65	7,591
269,86	4,757
270,08	9,785
270,29	5,455
270,50	9,290
270,72	10,694
270,93	7,679
271,14	5,592
271,36	5,874
271,57	11,807
271,78	6,908
272,00	12,770
272,21	8,983
272,42	8,937
272,64	12,554
272,85	7,262
273,06	3,634
273,28	12,283
273,49	7,826
273,70	8,705
273,92	11,287
274,13	9,997
274,34	9,584
274,56	10,628
274,77	8,441
274,98	10,910
275,20	11,591
275,41	9,667
275,62	8,138
275,84	7,127
276,05	13,941
276,26	2,966
276,47	4,778
276,69	13,364
276,90	9,163
277,11	4,004
277,33	7,392
277,54	13,440
277,75	11,478
277,97	4,875
278,18	3,748
278,39	10,827
278,61	7,371
278,82	7,266
279,03	8,258
279,24	7,533
279,46	10,509
279,67	8,140
279,88	7,171
280,10	10,476
280,31	5,153
280,52	8,284
280,73	3,860
280,95	9,991
281,16	12,774
281,37	6,900
281,59	10,411
281,80	12,959
282,01	7,807
282,22	5,424
282,44	3,073
282,65	14,692
282,86	11,807
283,08	4,293
283,29	5,492
283,50	7,243
283,71	6,819
283,93	7,212
284,14	9,748
284,35	7,568
284,56	6,909
284,78	3,857
284,99	6,823
285,20	13,025
285,42	7,205
285,63	7,131
285,84	4,804
286,05	4,597
286,27	6,813
286,48	3,751
286,69	3,862
286,90	5,000
287,12	5,508
287,33	2,748
287,54	3,994
287,75	7,825
287,97	8,749
288,18	5,933
288,39	4,142
288,60	7,533
288,82	7,559
289,03	4,388
289,24	5,962
289,45	10,712
289,67	8,307
289,88	4,547
290,09	7,600
290,30	7,398
290,52	4,662
290,73	3,852
290,94	3,411
291,15	5,847
291,37	9,557
291,58	4,814
291,79	5,474
292,00	8,370
292,21	9,144
292,43	4,894
292,64	2,477
292,85	5,547
293,06	9,815
293,28	3,447
293,49	3,513
293,70	6,498
293,91	6,930
294,12	6,485
294,34	7,213
294,55	8,469
294,76	8,426
294,97	9,786
295,19	3,895
295,40	6,836
295,61	9,797
295,82	3,869
296,03	6,049
296,25	8,630
296,46	4,604
296,67	3,228
296,88	1,344
297,09	8,848
297,31	5,693
297,52	7,829
297,73	5,329
297,94	7,903
298,15	5,321
298,37	6,661
298,58	6,713
298,79	8,784
299,00	5,297
299,21	2,575
299,43	3,042
299,64	13,612
299,85	7,816
300,06	4,319
300,27	2,991
300,49	9,713
300,70	6,138
300,91	5,346
301,12	4,751
301,33	11,505
301,54	6,506
301,76	6,105
301,97	4,354
302,18	5,376
302,39	7,656
302,60	15,034
302,82	8,132
303,03	10,025
303,24	8,016
303,45	6,662
303,66	7,885
303,87	4,052
304,09	8,948
304,30	4,669
304,51	4,469
304,72	5,919
304,93	8,447
305,14	6,700
305,36	2,223
305,57	3,497
305,78	7,646
305,99	5,643
306,20	5,783
306,41	5,641
306,62	4,356
306,84	5,038
307,05	2,352
307,26	7,247
307,47	10,045
307,68	5,032
307,89	5,229
308,11	7,553
308,32	3,626
308,53	6,495
308,74	4,065
308,95	5,581
309,16	7,214
309,37	8,263
309,59	4,368
309,80	6,435
310,01	6,419
310,22	7,940
310,43	4,739
310,64	7,618
310,85	7,472
311,06	5,369
311,28	6,336
311,49	5,449
311,70	8,707
311,91	3,153
312,12	6,305
312,33	7,651
312,54	7,710
312,75	7,268
312,97	2,105
313,18	9,032
313,39	3,679
313,60	4,848
313,81	5,723
314,02	6,072
314,23	8,531
314,44	3,183
314,65	4,475
314,87	3,714
315,08	3,501
315,29	9,138
315,50	8,680
315,71	7,199
315,92	12,269
316,13	7,418
316,34	7,270
316,55	8,239
316,77	1,491
316,98	7,334
317,19	4,643
317,40	9,107
317,61	8,633
317,82	5,011
318,03	4,949
318,24	5,389
318,45	7,386
318,66	6,418
318,87	2,226
319,09	8,020
319,30	8,462
319,51	11,013
319,72	7,333
319,93	6,811
320,14	8,330
320,35	8,052
320,56	5,713
320,77	3,274
320,98	11,069
321,19	6,050
321,40	3,444
321,62	7,675
321,83	5,160
322,04	8,066
322,25	6,017
322,46	11,185
322,67	9,631
322,88	8,677
323,09	2,263
323,30	8,872
323,51	9,777
323,72	7,389
323,93	6,583
324,14	7,218
324,35	5,954
324,56	0,433
324,77	7,123
324,99	6,910
325,20	1,648
325,41	5,532
325,62	7,358
325,83	4,962
326,04	5,901
326,25	6,775
326,46	2,752
326,67	9,286
326,88	5,758
327,09	6,350
327,30	5,004
327,51	7,057
327,72	6,208
327,93	7,914
328,14	3,682
328,35	6,100
328,56	7,582
328,77	8,094
328,98	8,569
329,19	7,874
329,40	8,031
329,61	6,204
329,82	1,758
330,04	9,624
330,25	3,314
330,46	5,636
330,67	4,376
330,88	6,056
331,09	6,993
331,30	7,138
331,51	8,156
331,72	8,178
331,93	8,526
332,14	5,069
332,35	9,795
332,56	5,752
332,77	7,865
332,98	3,129
333,19	5,969
333,40	10,051
333,61	8,185
333,82	10,671
334,03	7,956
334,24	11,600
334,45	6,679
334,66	9,191
334,87	9,468
335,08	6,786
335,29	5,569
335,50	4,501
335,71	3,280
335,92	10,823
336,13	11,394
336,34	4,594
336,55	7,188
336,76	9,449
336,97	8,545
337,18	5,012
337,39	6,351
337,60	8,928
337,81	8,493
338,02	6,657
338,23	6,609
338,44	8,853
338,65	8,168
338,86	8,339
339,07	7,483
339,28	7,153
339,49	7,552
339,70	5,152
339,91	7,257
340,11	9,592
340,32	7,140
340,53	3,138
340,74	5,324
340,95	6,479
341,16	6,903
341,37	6,061
341,58	4,238
341,79	6,375
342,00	5,894
342,21	6,769
342,42	4,738
342,63	10,685
342,84	5,976
343,05	10,226
343,26	9,742
343,47	10,365
343,68	7,392
343,89	6,719
344,10	8,585
344,31	9,415
344,52	10,393
344,73	7,570
344,94	7,798
345,14	9,047
345,35	12,841
345,56	5,804
345,77	6,429
345,98	8,673
346,19	10,001
346,40	8,654
346,61	6,774
346,82	8,649
347,03	9,857
347,24	11,725
347,45	8,096
347,66	13,141
347,87	7,412
348,08	13,052
348,28	5,022
348,49	9,955
348,70	10,728
348,91	12,107
349,12	5,651
349,33	23,200
349,54	8,220
349,75	9,193
349,96	11,063
350,17	9,752
350,38	8,685
350,59	13,126
350,80	8,736
351,00	14,261
351,21	13,907
351,42	11,680
351,63	7,299
351,84	11,085
352,05	11,914
352,26	8,465
352,47	10,573
352,68	11,596
352,89	11,554
353,09	13,308
353,30	7,076
353,51	10,908
353,72	15,784
353,93	14,966
354,14	8,047
354,35	7,696
354,56	14,302
354,77	8,932
354,98	5,984
355,18	13,110
355,39	17,091
355,60	6,614
355,81	9,273
356,02	12,338
356,23	11,910
356,44	7,170
356,65	11,816
356,85	15,910
357,06	16,353
357,27	13,988
357,48	10,558
357,69	13,885
357,90	14,779
358,11	7,636
358,32	11,758
358,52	15,501
358,73	10,964
358,94	9,369
359,15	11,977
359,36	12,662
359,57	9,712
359,78	13,729
359,98	9,580
360,19	7,142
360,40	11,314
360,61	12,076
360,82	10,561
361,03	16,882
361,24	15,946
361,44	10,258
361,65	14,809
361,86	10,320
362,07	13,960
362,28	9,828
362,49	7,701
362,70	11,674
362,90	12,606
363,11	10,030
363,32	10,759
363,53	12,496
363,74	15,296
363,95	17,022
364,15	13,881
364,36	15,024
364,57	11,679
364,78	13,822
364,99	9,145
365,20	12,922
365,40	15,480
365,61	7,551
365,82	16,710
366,03	12,838
366,24	12,843
366,45	12,884
366,65	14,210
366,86	10,726
367,07	15,717
367,28	11,780
367,49	13,098
367,69	17,661
367,90	11,858
368,11	12,865
368,32	11,615
368,53	15,596
368,73	13,314
368,94	12,065
369,15	14,729
369,36	13,567
369,57	14,376
369,78	12,961
369,98	16,279
370,19	20,074
370,40	9,933
370,61	13,149
370,82	10,004
371,02	17,189
371,23	17,206
371,44	12,346
371,65	11,275
371,85	16,785
372,06	13,254
372,27	15,121
372,48	14,403
372,69	13,548
372,89	12,451
373,10	15,612
373,31	12,108
373,52	17,305
373,73	20,537
373,93	12,863
374,14	11,560
374,35	14,595
374,56	16,858
374,76	14,414
374,97	12,117
375,18	13,109
375,39	14,917
375,60	17,401
375,80	14,121
376,01	12,358
376,22	16,160
376,43	12,813
376,63	13,599
376,84	16,884
377,05	17,408
377,26	10,845
377,46	10,713
377,67	15,848
377,88	15,461
378,09	15,219
378,29	11,516
378,50	15,781
378,71	16,655
378,92	12,919
379,12	12,989
379,33	16,376
379,54	16,691
379,75	17,068
379,95	13,424
380,16	14,884
380,37	19,586
380,58	13,366
380,78	15,731
380,99	14,380
381,20	11,248
381,41	15,457
381,61	15,229
381,82	16,179
382,03	18,638
382,24	13,461
382,44	14,860
382,65	13,296
382,86	13,892
383,06	15,052
383,27	15,659
383,48	12,666
383,69	15,709
383,89	17,159
384,10	17,663
384,31	13,623
384,51	15,485
384,72	19,545
384,93	12,697
385,14	14,782
385,34	15,275
385,55	12,705
385,76	13,193
385,96	20,348
386,17	15,087
386,38	16,773
386,59	18,500
386,79	14,960
387,00	18,744
387,21	20,365
387,41	17,027
387,62	17,013
387,83	21,884
388,03	14,873
388,24	12,129
388,45	14,988
388,66	19,372
388,86	15,877
389,07	15,707
389,28	18,765
389,48	16,486
389,69	16,802
389,90	13,016
390,10	18,368
390,31	19,092
390,52	10,625
390,72	15,665
390,93	15,351
391,14	19,407
391,34	13,617
391,55	18,566
391,76	19,755
391,96	17,269
392,17	13,399
392,38	17,780
392,58	17,884
392,79	17,261
393,00	15,959
393,20	14,673
393,41	14,313
393,62	16,873
393,82	14,641
394,03	15,725
394,24	15,271
394,44	25,065
394,65	15,882
394,86	14,925
395,06	15,727
395,27	16,200
395,48	16,362
395,68	18,545
395,89	16,873
396,10	18,431
396,30	14,887
396,51	14,261
396,72	18,504
396,92	17,110
397,13	17,115
397,34	15,627
397,54	20,758
397,75	14,584
397,95	13,335
398,16	17,904
398,37	16,394
398,57	14,673
398,78	18,703
398,99	18,012
399,19	21,079
399,40	22,779
399,60	13,242
399,81	14,996
400,02	20,288
400,22	17,041
400,43	12,886
400,64	18,979
400,84	15,486
401,05	16,522
401,25	19,608
401,46	18,078
401,67	19,406
401,87	20,549
402,08	12,525
402,29	17,239
402,49	20,734
402,70	18,761
402,90	16,011
403,11	18,409
403,32	17,940
403,52	15,918
403,73	16,418
403,93	20,468
404,14	23,168
404,35	18,459
404,55	16,412
404,76	17,516
404,96	18,514
405,17	20,253
405,38	21,774
405,58	17,567
405,79	21,699
405,99	21,218
406,20	20,497
406,40	16,941
406,61	20,475
406,82	17,615
407,02	19,445
407,23	15,338
407,43	15,013
407,64	14,838
407,85	16,033
408,05	10,928
408,26	24,729
408,46	23,049
408,67	14,912
408,87	18,643
409,08	17,581
409,29	22,256
409,49	19,977
409,70	16,857
409,90	19,336
410,11	18,917
410,31	20,350
410,52	18,491
410,72	19,671
410,93	21,694
411,14	15,529
411,34	17,430
411,55	22,087
411,75	19,877
411,96	15,172
412,16	15,649
412,37	17,536
412,57	18,026
412,78	16,618
412,99	16,711
413,19	21,431
413,40	19,753
413,60	13,529
413,81	17,381
414,01	19,688
414,22	19,085
414,42	15,763
414,63	13,142
414,83	19,281
415,04	20,942
415,24	20,005
415,45	15,808
415,65	17,650
415,86	18,538
416,07	15,956
416,27	18,460
416,48	23,618
416,68	23,412
416,89	16,060
417,09	17,506
417,30	19,262
417,50	18,010
417,71	17,961
417,91	17,697
418,12	16,399
418,32	19,563
418,53	19,080
418,73	19,136
418,94	17,621
419,14	20,335
419,35	13,638
419,55	17,446
419,76	16,807
419,96	16,793
420,17	14,428
420,37	14,680
420,58	23,745
420,78	20,994
420,99	17,013
421,19	18,968
421,40	18,292
421,60	22,127
421,81	14,338
422,01	16,665
422,22	19,180
422,42	20,178
422,63	16,307
422,83	18,205
423,04	20,143
423,24	23,765
423,45	13,374
423,65	18,977
423,86	22,259
424,06	22,192
424,27	14,770
424,47	15,031
424,67	17,783
424,88	19,215
425,08	17,971
425,29	22,697
425,49	15,122
425,70	14,169
425,90	18,362
426,11	15,334
426,31	19,680
426,52	18,538
426,72	14,898
426,93	14,477
427,13	19,998
427,33	15,542
427,54	19,242
427,74	19,751
427,95	24,615
428,15	13,872
428,36	20,240
428,56	17,897
428,77	18,759
428,97	15,854
429,18	20,832
429,38	16,989
429,58	20,745
429,79	22,386
429,99	14,073
430,20	13,713
430,40	20,814
430,61	14,285
430,81	16,908
431,01	18,499
431,22	20,080
431,42	22,773
431,63	14,207
431,83	15,036
432,04	19,545
432,24	23,144
432,44	11,068
432,65	14,469
432,85	15,059
433,06	20,578
433,26	15,371
433,47	15,998
433,67	17,937
433,87	14,700
434,08	12,999
434,28	14,193
434,49	15,417
434,69	24,793
434,89	15,938
435,10	18,794
435,30	21,451
435,51	14,363
435,71	17,791
435,91	13,417
436,12	19,221
436,32	18,291
436,53	16,814
436,73	16,293
436,93	20,327
437,14	18,174
437,34	19,538
437,55	16,489
437,75	16,971
437,95	19,307
438,16	16,956
438,36	14,945
438,57	14,801
438,77	11,841
438,97	21,864
439,18	24,452
439,38	15,591
439,58	14,643
439,79	16,044
439,99	13,738
440,20	21,096
440,40	17,866
440,60	18,329
440,81	18,638
441,01	18,351
441,21	18,699
441,42	20,698
441,62	19,398
441,83	19,320
442,03	16,589
442,23	17,236
442,44	19,021
442,64	20,710
442,84	17,008
443,05	15,302
443,25	13,511
443,45	11,674
443,66	20,263
443,86	15,253
444,06	18,506
444,27	15,146
444,47	20,422
444,67	16,300
444,88	18,497
445,08	17,237
445,28	20,061
445,49	13,463
445,69	13,757
445,90	19,379
446,10	22,393
446,30	19,949
446,51	19,713
446,71	22,910
446,91	23,340
447,12	25,429
447,32	15,145
447,52	19,068
447,72	20,465
447,93	16,713
448,13	14,792
448,33	24,453
448,54	21,135
448,74	12,908
448,94	17,190
449,15	25,556
449,35	23,442
449,55	17,705
449,76	23,360
449,96	18,396
450,16	23,276
450,37	17,827
450,57	20,497
450,77	17,089
450,98	20,835
451,18	20,907
451,38	18,976
451,58	18,680
451,79	18,169
451,99	20,679
452,19	19,456
452,40	20,479
452,60	14,319
452,80	17,029
453,00	20,013
453,21	21,335
453,41	19,449
453,61	15,546
453,82	19,357
454,02	15,116
454,22	23,406
454,42	19,803
454,63	18,539
454,83	21,903
455,03	23,424
455,24	19,906
455,44	17,772
455,64	17,061
455,84	14,626
456,05	17,486
456,25	17,883
456,45	17,540
456,65	19,472
456,86	23,172
457,06	19,305
457,26	20,364
457,47	21,704
457,67	19,245
457,87	15,504
458,07	21,489
458,28	22,732
458,48	25,807
458,68	16,134
458,88	23,439
459,09	19,294
459,29	21,066
459,49	14,636
459,69	26,342
459,90	22,379
460,10	17,775
460,30	22,368
460,50	19,872
460,71	18,821
460,91	16,536
461,11	20,864
461,31	14,477
461,52	25,188
461,72	20,234
461,92	18,102
462,12	28,409
462,32	12,623
462,53	16,760
462,73	14,845
462,93	25,918
463,13	22,791
463,34	17,452
463,54	17,494
463,74	20,976
463,94	20,491
464,14	22,435
464,35	17,836
464,55	25,792
464,75	24,728
464,95	21,355
465,16	15,891
465,36	23,655
465,56	23,553
465,76	17,865
465,96	17,616
466,17	18,384
466,37	19,105
466,57	24,278
466,77	19,583
466,97	17,783
467,18	26,665
467,38	23,269
467,58	20,117
467,78	28,313
467,98	24,450
468,19	17,948
468,39	23,936
468,59	26,389
468,79	22,320
468,99	20,693
469,19	14,043
469,40	24,858
469,60	19,397
469,80	17,209
470,00	20,357
470,20	22,983
470,41	21,447
470,61	21,816
470,81	19,263
471,01	18,993
471,21	26,252
471,41	20,079
471,62	20,970
471,82	17,295
472,02	15,361
472,22	20,334
472,42	21,404
472,62	22,074
472,83	21,909
473,03	21,211
473,23	20,497
473,43	24,667
473,63	21,810
473,83	19,692
474,03	17,448
474,24	25,878
474,44	23,051
474,64	20,935
474,84	18,217
475,04	20,607
475,24	20,625
475,45	21,680
475,65	16,837
475,85	24,680
476,05	18,441
476,25	21,588
476,45	19,832
476,65	25,028
476,85	22,911
477,06	20,826
477,26	18,770
477,46	24,164
477,66	20,304
477,86	21,468
478,06	21,295
478,26	27,145
478,46	21,354
478,67	21,112
478,87	20,551
479,07	21,489
479,27	25,218
479,47	17,960
479,67	15,632
479,87	19,569
480,07	24,301
480,28	20,048
480,48	18,349
480,68	27,238
480,88	26,667
481,08	24,162
481,28	21,579
481,48	20,902
481,68	22,515
481,88	17,134
482,08	23,398
482,29	25,954
482,49	19,144
482,69	26,087
482,89	22,327
483,09	23,635
483,29	21,796
483,49	18,337
483,69	22,636
483,89	22,025
484,09	20,147
484,29	18,648
484,50	21,423
484,70	23,659
484,90	21,396
485,10	21,569
485,30	22,095
485,50	26,512
485,70	25,498
485,90	20,445
486,10	16,071
486,30	22,493
486,50	22,531
486,70	20,980
486,90	22,730
487,10	25,372
487,30	23,113
487,51	23,762
487,71	20,144
487,91	22,329
488,11	25,466
488,31	21,404
488,51	24,253
488,71	22,600
488,91	27,027
489,11	20,991
489,31	22,504
489,51	25,174
489,71	27,339
489,91	23,029
490,11	21,540
490,31	24,848
490,51	26,227
490,71	22,999
490,91	24,262
491,11	24,986
491,31	23,857
491,51	21,602
491,72	24,490
491,92	25,998
492,12	28,194
492,32	26,956
492,52	27,408
492,72	25,539
492,92	27,642
493,12	27,055
493,32	25,898
493,52	25,199
493,72	27,764
493,92	27,140
494,12	26,947
494,32	29,662
494,52	26,612
494,72	26,091
494,92	28,257
495,12	29,630
495,32	31,156
495,52	29,712
495,72	29,356
495,92	31,775
496,12	32,688
496,32	27,263
496,52	29,789
496,72	29,675
496,92	31,090
497,12	29,030
497,32	31,764
497,52	32,656
497,72	31,587
497,92	33,842
498,12	30,531
498,32	33,552
498,52	31,467
498,72	28,987
498,92	32,201
499,12	33,179
499,32	30,773
499,52	35,630
499,72	37,825
499,92	34,318
500,12	34,305
500,32	33,685
500,52	32,629
500,72	42,671
500,91	36,408
501,11	33,816
501,31	31,924
501,51	37,887
501,71	38,523
501,91	38,463
502,11	33,298
502,31	38,456
502,51	37,369
502,71	36,869
502,91	35,990
503,11	37,004
503,31	39,540
503,51	34,598
503,71	35,858
503,91	40,066
504,11	40,907
504,31	39,999
504,51	39,413
504,71	44,164
504,91	38,791
505,10	37,593
505,30	38,333
505,50	40,419
505,70	39,685
505,90	41,535
506,10	36,955
506,30	39,948
506,50	43,168
506,70	43,774
506,90	41,300
507,10	42,803
507,30	41,410
507,50	42,468
507,70	43,140
507,89	43,683
508,09	41,576
508,29	40,524
508,49	43,149
508,69	41,854
508,89	41,557
509,09	41,569
509,29	42,479
509,49	45,818
509,69	48,107
509,89	45,182
510,09	42,470
510,28	46,910
510,48	46,721
510,68	45,059
510,88	44,308
511,08	45,213
511,28	47,805
511,48	44,891
511,68	43,746
511,88	41,629
512,07	47,176
512,27	48,176
512,47	46,745
512,67	41,523
512,87	42,844
513,07	45,655
513,27	44,728
513,47	48,377
513,67	46,507
513,86	48,180
514,06	47,186
514,26	46,645
514,46	52,617
514,66	46,623
514,86	48,435
515,06	48,671
515,26	50,455
515,45	50,277
515,65	47,097
515,85	49,189
516,05	47,864
516,25	49,303
516,45	51,268
516,65	47,053
516,84	51,544
517,04	53,890
517,24	52,777
517,44	50,608
517,64	54,066
517,84	55,516
518,04	54,427
518,23	51,943
518,43	55,593
518,63	50,669
518,83	48,652
519,03	51,459
519,23	51,093
519,42	54,274
519,62	50,854
519,82	54,129
520,02	51,996
520,22	53,862
520,42	48,497
520,61	53,425
520,81	55,447
521,01	56,057
521,21	51,602
521,41	53,738
521,61	55,638
521,80	49,992
522,00	54,484
522,20	56,480
522,40	55,195
522,60	53,205
522,79	53,896
522,99	55,213
523,19	55,323
523,39	53,334
523,59	56,795
523,78	57,291
523,98	51,954
524,18	53,272
524,38	51,831
524,58	55,220
524,77	55,895
524,97	54,408
525,17	55,989
525,37	54,575
525,57	61,784
525,76	57,302
525,96	55,770
526,16	56,498
526,36	52,942
526,56	55,104
526,75	53,144
526,95	57,482
527,15	56,596
527,35	58,257
527,55	56,382
527,74	57,492
527,94	54,521
528,14	55,669
528,34	56,616
528,53	57,592
528,73	56,688
528,93	57,282
529,13	56,203
529,32	55,914
529,52	55,565
529,72	55,214
529,92	55,031
530,12	57,133
530,31	54,402
530,51	58,119
530,71	57,988
530,91	56,756
531,10	52,315
531,30	53,130
531,50	55,259
531,70	59,740
531,89	56,830
532,09	54,270
532,29	55,215
532,49	57,299
532,68	57,302
532,88	54,471
533,08	55,349
533,28	58,128
533,47	57,841
533,67	57,706
533,87	52,369
534,06	62,161
534,26	57,339
534,46	55,200
534,66	57,231
534,85	57,545
535,05	52,995
535,25	55,336
535,45	56,082
535,64	61,011
535,84	58,697
536,04	54,758
536,23	58,121
536,43	59,542
536,63	55,343
536,83	57,449
537,02	55,419
537,22	55,250
537,42	57,483
537,61	56,910
537,81	54,819
538,01	56,970
538,20	57,841
538,40	53,093
538,60	56,853
538,80	55,617
538,99	55,320
539,19	54,777
539,39	53,727
539,58	54,059
539,78	51,676
539,98	50,860
540,17	50,926
540,37	53,489
540,57	48,726
540,76	50,208
540,96	46,451
541,16	50,593
541,36	49,297
541,55	44,937
541,75	44,940
541,95	48,487
542,14	45,206
542,34	46,436
542,54	44,600
542,73	46,731
542,93	46,592
543,13	45,022
543,32	45,469
543,52	46,811
543,72	43,641
543,91	44,805
544,11	46,556
544,31	47,362
544,50	46,021
544,70	47,571
544,89	46,591
545,09	48,435
545,29	45,883
545,48	46,733
545,68	47,012
545,88	47,824
546,07	47,891
546,27	49,494
546,47	50,314
546,66	50,467
546,86	51,896
547,06	49,094
547,25	50,724
547,45	54,404
547,64	54,754
547,84	54,907
548,04	54,750
548,23	56,656
548,43	52,426
548,63	57,099
548,82	54,589
549,02	55,520
549,21	53,581
549,41	53,457
549,61	54,624
549,80	53,963
550,00	56,140
550,20	52,696
550,39	55,557
550,59	56,616
550,78	59,976
550,98	53,615
551,18	57,432
551,37	58,420
551,57	54,744
551,76	55,593
551,96	54,935
552,16	56,645
552,35	57,444
552,55	56,525
552,74	58,673
552,94	57,593
553,14	56,458
553,33	54,653
553,53	57,786
553,72	57,280
553,92	61,468
554,12	57,841
554,31	60,167
554,51	59,587
554,70	55,636
554,90	59,535
555,09	61,532
555,29	61,181
555,49	59,392
555,68	58,584
555,88	56,884
556,07	58,830
556,27	62,191
556,46	59,064
556,66	56,529
556,86	61,262
557,05	57,790
557,25	57,240
557,44	58,527
557,64	58,049
557,83	59,753
558,03	59,471
558,22	58,969
558,42	58,870
558,62	62,780
558,81	58,913
559,01	59,943
559,20	61,868
559,40	56,551
559,59	54,644
559,79	58,515
559,98	61,724
560,18	61,333
560,37	61,484
560,57	56,829
560,76	56,505
560,96	57,519
561,16	60,337
561,35	58,390
561,55	61,337
561,74	60,086
561,94	61,002
562,13	60,211
562,33	58,762
562,52	60,047
562,72	59,027
562,91	58,045
563,11	60,341
563,30	63,296
563,50	60,344
563,69	55,333
563,89	58,549
564,08	60,463
564,28	58,459
564,47	58,952
564,67	60,116
564,86	60,419
565,06	55,455
565,25	58,889
565,45	56,144
565,64	62,426
565,84	59,553
566,03	59,449
566,23	62,274
566,42	60,345
566,62	58,502
566,81	57,909
567,01	59,147
567,20	61,217
567,40	59,025
567,59	56,789
567,79	62,524
567,98	62,573
568,18	58,766
568,37	58,621
568,57	61,641
568,76	62,449
568,96	58,653
569,15	58,763
569,35	60,431
569,54	63,566
569,73	61,757
569,93	56,787
570,12	57,525
570,32	60,917
570,51	59,802
570,71	60,598
570,90	61,729
571,10	60,232
571,29	59,087
571,49	58,607
571,68	59,704
571,87	61,793
572,07	60,286
572,26	56,196
572,46	61,411
572,65	59,969
572,85	58,249
573,04	57,706
573,24	59,656
573,43	62,804
573,62	61,013
573,82	58,785
574,01	59,321
574,21	61,513
574,40	57,911
574,60	57,660
574,79	64,840
574,98	59,808
575,18	61,149
575,37	56,437
575,57	61,313
575,76	60,338
575,96	59,709
576,15	59,383
576,34	60,032
576,54	60,052
576,73	59,354
576,93	59,885
577,12	61,547
577,31	59,174
577,51	58,908
577,70	57,548
577,90	59,787
578,09	59,797
578,28	57,588
578,48	59,013
578,67	61,451
578,87	61,837
579,06	56,414
579,25	58,550
579,45	60,175
579,64	58,281
579,84	58,700
580,03	58,320
580,22	62,417
580,42	58,356
580,61	58,728
580,81	57,226
581,00	58,274
581,19	59,901
581,39	58,137
581,58	58,283
581,77	59,065
581,97	60,677
582,16	57,485
582,35	56,396
582,55	58,592
582,74	61,447
582,94	58,562
583,13	57,852
583,32	59,460
583,52	59,987
583,71	60,041
583,90	59,553
584,10	59,450
584,29	59,314
584,48	58,402
584,68	60,219
584,87	58,597
585,06	58,485
585,26	57,901
585,45	58,119
585,65	61,452
585,84	58,903
586,03	57,885
586,23	57,006
586,42	58,793
586,61	61,461
586,81	58,715
587,00	59,277
587,19	58,696
587,39	60,494
587,58	59,486
587,77	59,105
587,97	57,994
588,16	58,249
588,35	58,965
588,54	59,909
588,74	59,026
588,93	59,977
589,12	58,818
589,32	56,916
589,51	58,557
589,70	58,068
589,90	57,256
590,09	56,720
590,28	61,238
590,48	57,777
590,67	56,501
590,86	58,726
591,06	59,093
591,25	61,426
591,44	58,559
591,63	58,034
591,83	58,215
592,02	60,221
592,21	56,953
592,41	56,229
592,60	57,877
592,79	57,859
592,98	58,559
593,18	58,692
593,37	59,029
593,56	60,743
593,76	59,986
593,95	58,436
594,14	56,775
594,33	60,848
594,53	60,023
594,72	59,080
594,91	62,845
595,10	60,916
595,30	57,451
595,49	59,399
595,68	61,290
595,88	59,644
596,07	61,983
596,26	59,220
596,45	57,719
596,65	58,449
596,84	59,653
597,03	59,453
597,22	60,195
597,42	62,561
597,61	59,400
597,80	60,355
597,99	58,570
598,19	61,487
598,38	60,540
598,57	58,615
598,76	61,155
598,95	60,909
599,15	60,159
599,34	61,513
599,53	61,001
599,72	61,132
599,92	62,479
600,11	59,447
600,30	59,081
600,49	61,048
600,69	58,739
600,88	60,639
601,07	60,755
601,26	60,024
601,45	59,554
601,65	59,687
601,84	61,046
602,03	60,573
602,22	62,218
602,42	60,942
602,61	59,130
602,80	60,366
602,99	59,492
603,18	57,996
603,38	61,344
603,57	59,706
603,76	57,811
603,95	57,891
604,14	61,136
604,34	59,155
604,53	59,140
604,72	61,172
604,91	61,603
605,10	61,520
605,29	61,342
605,49	57,670
605,68	60,670
605,87	62,103
606,06	59,710
606,25	59,240
606,45	60,950
606,64	60,363
606,83	61,548
607,02	59,721
607,21	62,031
607,40	60,799
607,60	56,694
607,79	57,203
607,98	56,849
608,17	57,461
608,36	58,033
608,55	57,923
608,75	58,398
608,94	58,522
609,13	52,944
609,32	50,180
609,51	53,819
609,70	51,758
609,89	53,052
610,09	51,344
610,28	55,514
610,47	53,233
610,66	50,698
610,85	49,801
611,04	53,843
611,23	51,881
611,43	49,942
611,62	51,593
611,81	50,904
612,00	52,392
612,19	52,133
612,38	52,220
612,57	54,302
612,77	52,916
612,96	53,143
613,15	52,579
613,34	55,823
613,53	53,912
613,72	57,296
613,91	55,396
614,10	55,956
614,29	58,854
614,49	54,709
614,68	55,137
614,87	56,857
615,06	60,474
615,25	54,425
615,44	59,033
615,63	58,446
615,82	57,269
616,01	59,361
616,21	56,185
616,40	59,445
616,59	60,783
616,78	57,825
616,97	58,216
617,16	59,285
617,35	61,774
617,54	58,105
617,73	59,550
617,92	57,838
618,11	59,945
618,31	54,821
618,50	57,547
618,69	58,108
618,88	56,925
619,07	57,903
619,26	56,175
619,45	56,210
619,64	57,023
619,83	56,290
620,02	56,339
620,21	59,312
620,40	57,890
620,59	58,210
620,78	57,867
620,97	60,059
621,17	59,656
621,36	58,137
621,55	55,866
621,74	58,020
621,93	59,824
622,12	58,292
622,31	56,203
622,50	59,381
622,69	59,549
622,88	57,407
623,07	60,536
623,26	57,393
623,45	60,237
623,64	58,290
623,83	57,603
624,02	60,293
624,21	59,739
624,40	58,343
624,59	56,722
624,78	60,053
624,97	61,264
625,16	58,184
625,35	57,323
625,54	57,243
625,73	56,999
625,92	59,137
626,12	59,810
626,31	60,280
626,50	60,060
626,69	57,775
626,88	57,102
627,07	59,733
627,26	59,503
627,45	55,387
627,64	57,461
627,83	59,282
628,02	57,141
628,21	57,813
628,40	56,946
628,59	59,166
628,78	57,395
628,97	56,070
629,16	56,284
629,35	57,660
629,54	60,301
629,73	58,762
629,92	57,584
630,10	58,384
630,29	57,850
630,48	58,316
630,67	56,510
630,86	60,820
631,05	58,650
631,24	60,172
631,43	56,121
631,62	57,977
631,81	58,067
632,00	57,016
632,19	55,217
632,38	58,391
632,57	56,218
632,76	57,126
632,95	58,675
633,14	58,687
633,33	58,289
633,52	59,949
633,71	58,358
633,90	58,198
634,09	58,004
634,28	58,041
634,47	58,175
634,66	59,140
634,85	58,616
635,04	60,552
635,22	57,338
635,41	57,811
635,60	62,086
635,79	60,039
635,98	57,591
636,17	57,235
636,36	59,267
636,55	57,211
636,74	56,845
636,93	58,293
637,12	60,649
637,31	56,850
637,50	57,835
637,69	59,472
637,87	59,947
638,06	60,009
638,25	58,182
638,44	59,887
638,63	55,715
638,82	57,738
639,01	57,802
639,20	58,900
639,39	59,695
639,58	55,790
639,77	59,394
639,95	55,790
640,14	59,982
640,33	57,828
640,52	57,069
640,71	61,048
640,90	57,706
641,09	61,305
641,28	57,936
641,47	59,527
641,66	58,032
641,84	57,792
642,03	57,150
642,22	58,503
642,41	60,271
642,60	58,540
642,79	59,763
642,98	59,865
643,17	57,722
643,35	57,955
643,54	58,348
643,73	58,583
643,92	60,459
644,11	57,351
644,30	58,875
644,49	61,521
644,67	56,991
644,86	55,539
645,05	58,861
645,24	58,975
645,43	57,002
645,62	58,901
645,81	58,506
645,99	60,240
646,18	60,101
646,37	58,952
646,56	57,784
646,75	60,584
646,94	62,313
647,13	58,024
647,31	58,167
647,50	58,911
647,69	59,120
647,88	58,935
648,07	59,839
648,26	63,607
648,44	58,144
648,63	56,584
648,82	58,761
649,01	61,351
649,20	56,890
649,38	59,276
649,57	59,516
649,76	57,606
649,95	61,107
650,14	56,993
650,33	57,320
650,51	59,665
650,70	60,033
650,89	57,452
651,08	56,690
651,27	57,899
651,45	58,097
651,64	58,020
651,83	60,016
652,02	60,054
652,21	57,678
652,39	59,471
652,58	60,094
652,77	56,485
652,96	59,699
653,15	58,644
653,33	58,464
653,52	59,020
653,71	61,608
653,90	60,463
654,09	59,591
654,27	60,268
654,46	62,621
654,65	61,126
654,84	59,822
655,02	63,398
655,21	60,956
655,40	61,352
655,59	60,120
655,77	62,695
655,96	59,534
656,15	59,547
656,34	63,896
656,53	60,613
656,71	61,016
656,90	60,726
657,09	62,316
657,28	62,377
657,46	60,000
657,65	61,463
657,84	58,964
658,03	60,313
658,21	59,166
658,40	60,152
658,59	58,374
658,78	61,775
658,96	58,591
659,15	59,119
659,34	59,215
659,52	60,600
659,71	61,064
659,90	57,427
660,09	58,219
660,27	59,384
660,46	62,311
660,65	60,429
660,84	57,044
661,02	58,121
661,21	59,009
661,40	58,965
661,58	58,879
661,77	60,111
661,96	56,359
662,15	58,948
662,33	57,863
662,52	57,196
662,71	58,692
662,89	56,683
663,08	57,450
663,27	59,046
663,45	58,410
663,64	57,679
663,83	54,281
664,02	57,502
664,20	58,336
664,39	57,196
664,58	60,126
664,76	58,522
664,95	60,265
665,14	57,551
665,32	56,104
665,51	58,434
665,70	60,481
665,88	57,680
666,07	59,034
666,26	58,723
666,44	59,955
666,63	57,654
666,82	58,597
667,00	59,373
667,19	56,835
667,38	59,916
667,56	60,164
667,75	60,483
667,94	59,520
668,12	56,280
668,31	58,490
668,50	61,026
668,68	58,377
668,87	58,628
669,06	57,893
669,24	60,226
669,43	58,820
669,62	56,968
669,80	55,937
669,99	58,230
670,18	59,241
670,36	58,003
670,55	59,377
670,74	58,940
670,92	54,791
671,11	59,812
671,29	58,017
671,48	57,630
671,67	58,580
671,85	58,009
672,04	56,606
672,23	57,889
672,41	57,491
672,60	58,114
672,78	58,568
672,97	58,310
673,16	59,187
673,34	59,678
673,53	56,870
673,71	59,016
673,90	58,702
674,09	58,466
674,27	56,771
674,46	58,094
674,64	59,415
674,83	56,870
675,02	56,349
675,20	59,120
675,39	58,285
675,57	56,638
675,76	56,584
675,95	61,164
676,13	59,474
676,32	59,487
676,50	59,558
676,69	56,567
676,88	57,949
677,06	56,891
677,25	57,645
677,43	61,975
677,62	58,927
677,80	57,432
677,99	57,971
678,18	60,887
678,36	60,837
678,55	56,124
678,73	58,717
678,92	59,624
679,10	61,457
679,29	59,160
679,48	56,511
679,66	58,602
679,85	57,339
680,03	59,421
680,22	58,276
680,40	57,456
680,59	57,999
680,77	57,220
680,96	58,194
681,15	58,209
681,33	60,608
681,52	56,396
681,70	57,867
681,89	59,422
682,07	59,808
682,26	58,537
682,44	59,370
682,63	60,860
682,81	58,078
683,00	59,133
683,18	56,807
683,37	59,841
683,55	56,850
683,74	59,487
683,92	62,651
684,11	59,791
684,29	58,841
684,48	55,706
684,67	58,929
684,85	59,463
685,04	58,703
685,22	59,162
685,41	58,673
685,59	58,820
685,78	58,904
685,96	57,027
686,15	56,282
686,33	56,849
686,52	56,532
686,70	57,233
686,89	59,064
687,07	59,580
687,26	59,280
687,44	58,364
687,62	58,449
687,81	57,696
687,99	58,121
688,18	57,709
688,36	59,315
688,55	61,187
688,73	58,599
688,92	57,821
689,10	56,948
689,29	59,575
689,47	61,601
689,66	59,221
689,84	57,354
690,03	60,901
690,21	58,779
690,40	58,860
690,58	56,476
690,76	56,997
690,95	57,931
691,13	57,558
691,32	58,736
691,50	60,170
691,69	59,551
691,87	55,546
692,06	57,916
692,24	58,370
692,43	59,402
692,61	57,172
692,79	58,873
692,98	56,927
693,16	60,350
693,35	57,066
693,53	58,800
693,72	58,651
693,90	61,680
694,08	57,248
694,27	55,732
694,45	61,426
694,64	61,701
694,82	57,328
695,01	56,515
695,19	59,693
695,37	58,170
695,56	57,276
695,74	57,905
695,93	59,284
696,11	56,902
696,29	59,940
696,48	59,191
696,66	59,032
696,85	57,718
697,03	56,590
697,21	60,330
697,40	57,555
697,58	59,421
697,77	58,245
697,95	57,882
698,13	60,619
698,32	57,939
698,50	57,157
698,69	55,759
698,87	58,736
699,05	58,856
699,24	58,765
699,42	57,873
699,60	55,875
699,79	57,378
699,97	58,392
700,16	57,484
700,34	60,278
700,52	59,849
700,71	57,074
700,89	56,260
701,07	58,996
701,26	60,089
701,44	56,618
701,63	57,285
701,81	56,632
701,99	57,719
702,18	57,039
702,36	56,917
702,54	58,716
702,73	58,087
702,91	58,041
703,09	58,157
703,28	57,481
703,46	57,635
703,64	56,434
703,83	56,752
704,01	58,882
704,19	56,107
704,38	57,128
704,56	56,626
704,74	59,113
704,93	59,147
705,11	58,693
705,29	56,207
705,48	65,045
705,66	58,665
705,84	58,038
706,03	54,331
706,21	58,182
706,39	56,745
706,58	56,575
706,76	57,422
706,94	58,804
707,12	58,640
707,31	55,813
707,49	57,437
707,67	59,311
707,86	58,133
708,04	56,682
708,22	55,810
708,41	57,252
708,59	59,148
708,77	55,773
708,95	57,414
709,14	60,615
709,32	59,042
709,50	57,139
709,69	56,773
709,87	58,126
710,05	57,462
710,23	56,339
710,42	57,561
710,60	58,859
710,78	58,578
710,97	57,424
711,15	57,774
711,33	60,528
711,51	56,602
711,70	56,790
711,88	55,858
712,06	60,590
712,24	58,056
712,43	57,143
712,61	57,658
712,79	58,339
712,97	57,644
713,16	59,184
713,34	58,312
713,52	58,601
713,70	59,151
713,89	58,414
714,07	56,201
714,25	56,804
714,43	59,103
714,62	56,256
714,80	57,497
714,98	55,773
715,16	58,959
715,35	56,392
715,53	55,584
715,71	58,347
715,89	58,471
716,07	58,122
716,26	61,453
716,44	59,089
716,62	59,360
716,80	58,750
716,99	56,370
717,17	60,432
717,35	58,770
717,53	56,305
717,71	56,499
717,90	60,210
718,08	55,425
718,26	56,289
718,44	59,945
718,62	59,418
718,81	59,102
718,99	54,552
719,17	56,951
719,35	57,471
719,53	57,924
719,72	56,825
719,90	56,869
720,08	58,128
720,26	59,030
720,44	55,860
720,62	55,662
720,81	58,954
720,99	61,764
721,17	55,614
721,35	58,647
721,53	57,350
721,72	59,671
721,90	59,047
722,08	57,346
722,26	61,015
722,44	59,392
722,62	56,826
722,81	56,571
722,99	57,795
723,17	58,755
723,35	58,940
723,53	58,206
723,71	59,294
723,89	62,600
724,08	55,027
724,26	56,674
724,44	59,730
724,62	58,308
724,80	56,666
724,98	59,309
725,16	61,131
725,35	57,735
725,53	55,813
725,71	58,481
725,89	60,533
726,07	60,855
726,25	59,794
726,43	57,605
726,61	60,414
726,80	59,926
726,98	55,718
727,16	57,419
727,34	59,961
727,52	56,777
727,70	54,359
727,88	55,043
728,06	54,892
728,25	55,743
728,43	59,060
728,61	57,594
728,79	56,873
728,97	58,524
729,15	58,078
729,33	57,155
729,51	59,067
729,69	58,693
729,87	59,442
730,06	55,799
730,24	56,692
730,42	59,209
730,60	56,979
730,78	58,563
730,96	58,062
731,14	58,401
731,32	58,253
731,50	54,396
731,68	58,813
731,86	60,535
732,04	58,679
732,22	57,892
732,41	61,301
732,59	59,629
732,77	58,104
732,95	61,530
733,13	58,381
733,31	59,043
733,49	58,410
733,67	59,279
733,85	60,278
734,03	58,485
734,21	58,211
734,39	56,995
734,57	59,530
734,75	59,319
734,93	55,741
735,11	57,588
735,29	58,812
735,47	59,688
735,65	56,501
735,84	58,304
736,02	58,410
736,20	60,460
736,38	58,010
736,56	58,278
736,74	57,803
736,92	57,528
737,10	55,948
737,28	59,147
737,46	59,229
737,64	56,374
737,82	60,581
738,00	58,519
738,18	60,220
738,36	57,540
738,54	57,182
738,72	55,214
738,90	58,653
739,08	59,611
739,26	55,408
739,44	59,330
739,62	58,692
739,80	60,306
739,98	55,816
740,16	59,930
740,34	57,549
740,52	61,184
740,70	56,443
740,88	55,821
741,06	55,966
741,24	57,483
741,42	58,567
741,60	55,925
741,78	59,938
741,96	56,695
742,14	57,714
742,32	54,745
742,50	57,933
742,68	58,714
742,86	57,100
743,04	54,425
743,21	58,532
743,39	59,740
743,57	57,046
743,75	57,352
743,93	54,961
744,11	54,168
744,29	55,010
744,47	58,597
744,65	57,709
744,83	55,161
745,01	56,503
745,19	56,514
745,37	62,298
745,55	58,008
745,73	58,959
745,91	56,720
746,09	56,543
746,27	57,167
746,45	54,290
746,62	56,746
746,80	60,091
746,98	58,388
747,16	56,607
747,34	56,458
747,52	56,042
747,70	57,169
747,88	57,226
748,06	57,260
748,24	59,788
748,42	58,246
748,60	57,535
748,78	57,050
748,95	58,833
749,13	62,574
749,31	58,748
749,49	56,951
749,67	60,639
749,85	60,447
750,03	58,493
750,21	56,879
750,39	59,488
750,57	61,526
750,74	59,540
750,92	57,980
751,10	57,392
751,28	58,487
751,46	57,955
751,64	58,475
751,82	59,258
752,00	58,636
752,17	58,162
752,35	56,054
752,53	57,842
752,71	58,572
752,89	57,493
753,07	54,083
753,25	57,032
753,43	55,138
753,60	58,625
753,78	56,834
753,96	61,077
754,14	58,636
754,32	57,379
754,50	60,340
754,68	61,329
754,85	56,861
755,03	57,343
755,21	58,836
755,39	63,914
755,57	60,552
755,75	56,230
755,92	55,869
756,10	59,209
756,28	58,836
756,46	58,545
756,64	58,840
756,82	56,625
756,99	59,110
757,17	56,786
757,35	57,986
757,53	62,770
757,71	60,417
757,89	57,814
758,06	58,757
758,24	61,811
758,42	60,790
758,60	56,653
758,78	58,742
758,95	58,885
759,13	60,190
759,31	57,081
759,49	57,531
759,67	58,972
759,84	57,605
760,02	59,980
760,20	56,309
760,38	58,315
760,56	56,436
760,73	58,435
760,91	58,344
761,09	61,762
761,27	58,651
761,45	58,450
761,62	57,180
761,80	58,711
761,98	59,061
762,16	58,074
762,33	58,648
762,51	60,880
762,69	57,336
762,87	57,040
763,05	58,667
763,22	55,584
763,40	56,682
763,58	55,276
763,76	57,466
763,93	62,766
764,11	60,909
764,29	56,581
764,47	60,575
764,64	60,134
764,82	62,531
765,00	58,341
765,18	57,061
765,35	57,204
765,53	58,746
765,71	56,780
765,89	55,852
766,06	56,684
766,24	57,946
766,42	58,267
766,60	59,986
766,77	57,265
766,95	59,071
767,13	58,400
767,30	59,752
767,48	59,203
767,66	57,327
767,84	55,363
768,01	57,894
768,19	60,624
768,37	59,673
768,54	57,456
768,72	60,132
768,90	59,834
769,08	59,102
769,25	58,566
769,43	56,519
769,61	58,262
769,78	58,499
769,96	59,097
770,14	61,605
770,31	60,276
770,49	61,399
770,67	57,477
770,85	59,257
771,02	59,056
771,20	58,921
771,38	60,262
771,55	57,678
771,73	56,615
771,91	58,233
772,08	60,434
772,26	56,720
772,44	57,905
772,61	58,880
772,79	58,351
772,97	55,931
773,14	56,685
773,32	61,013
773,50	57,489
773,67	57,607
773,85	63,578
774,03	61,312
774,20	57,327
774,38	61,553
774,56	60,249
774,73	58,764
774,91	56,089
775,09	58,430
775,26	57,639
775,44	60,186
775,61	58,874
775,79	57,985
775,97	62,575
776,14	58,613
776,32	54,983
776,50	58,174
776,67	60,613
776,85	58,665
777,03	58,735
777,20	58,697
777,38	61,493
777,55	59,975
777,73	54,162
777,91	56,444
778,08	59,016
778,26	55,272
778,43	59,337
778,61	55,808
778,79	56,230
778,96	58,805
779,14	57,973
779,32	57,173
779,49	58,151
779,67	61,591
779,84	58,840
780,02	59,582
780,20	55,385
780,37	61,929
780,55	55,419
780,72	62,058
780,90	58,876
781,07	58,883
781,25	59,578
781,43	62,041
781,60	59,265
781,78	62,102
781,95	59,582
782,13	56,674
782,30	63,251
782,48	60,502
782,66	58,318
782,83	57,362
783,01	61,592
783,18	58,830
783,36	61,371
783,53	59,653
783,71	59,909
783,89	59,646
784,06	58,713
784,24	59,394
784,41	61,399
784,59	60,374
784,76	60,018
784,94	60,084
785,11	60,920
785,29	59,549
785,46	58,493
785,64	58,437
785,82	59,227
785,99	62,586
786,17	59,461
786,34	60,372
786,52	61,822
786,69	64,477
786,87	59,269
787,04	59,614
787,22	58,934
787,39	59,696
787,57	59,306
787,74	62,373
787,92	63,531
788,09	60,422
788,27	60,319
788,44	58,383
788,62	61,867
788,79	57,679
788,97	61,929
789,14	59,779
789,32	59,807
789,49	59,598
789,67	59,737
789,84	62,650
790,02	61,074
790,19	57,037
790,37	61,034
790,54	60,717
790,72	63,760
790,89	65,050
791,07	59,679
791,24	56,234
791,42	64,764
791,59	60,485
791,77	59,602
791,94	57,736
792,12	57,571
792,29	60,614
792,47	58,100
792,64	62,390
792,81	63,186
792,99	58,110
793,16	59,062
793,34	62,954
793,51	62,324
793,69	62,592
793,86	60,411
794,04	63,868
794,21	58,357
794,39	58,483
794,56	58,500
794,73	60,530
794,91	64,210
795,08	60,666
795,26	62,366
795,43	57,795
795,61	64,258
795,78	60,814
795,95	61,790
796,13	63,903
796,30	63,066
796,48	59,999
796,65	58,685
796,83	61,387
797,00	65,554
797,17	58,753
797,35	59,966
797,52	61,539
797,70	65,877
797,87	62,620
798,04	58,921
798,22	60,433
798,39	59,723
798,57	59,854
798,74	57,810
798,91	58,066
799,09	59,776
799,26	64,361
799,44	61,734
799,61	59,903
799,78	59,389
799,96	64,630
800,13	55,834
800,31	60,725
800,48	61,985
800,65	64,390
800,83	58,620
801,00	58,705
801,17	58,604
801,35	62,293
801,52	60,984
801,70	61,599
801,87	60,299
802,04	66,682
802,22	57,497
802,39	60,308
802,56	67,830
802,74	63,017
802,91	57,634
803,08	58,910
803,26	65,885
803,43	64,655
803,61	60,691
803,78	58,786
803,95	61,152
804,13	66,588
804,30	57,335
804,47	63,354
804,65	59,192
804,82	60,553
804,99	61,411
805,17	60,012
805,34	68,813
805,51	66,287
805,69	63,360
805,86	53,782
806,03	66,599
806,21	65,931
806,38	61,615
806,55	60,524
806,72	64,626
806,90	64,073
807,07	63,600
807,24	60,996
807,42	60,310
807,59	62,550
807,76	55,820
807,94	59,465
808,11	67,150
808,28	68,754
808,45	61,142
808,63	60,731
808,80	69,213
808,97	62,088
809,15	60,033
809,32	65,734
809,49	65,426
809,67	62,099
809,84	63,031
810,01	68,039
810,18	72,471
810,36	66,307
810,53	61,692
810,70	62,297
810,87	67,439
811,05	62,520
811,22	61,911
811,39	58,923
811,57	65,674
811,74	66,383
811,91	59,279
812,08	59,476
812,26	65,540
812,43	62,313
812,60	60,577
812,77	64,547
812,95	68,305
813,12	68,645
813,29	59,991
813,46	61,126
813,64	66,532
813,81	67,564
813,98	61,012
814,15	67,016
814,32	69,767
814,50	62,652
814,67	64,425
814,84	63,013
815,01	63,873
815,19	58,981
815,36	56,488
815,53	62,375
815,70	61,904
815,87	63,068
816,05	58,223
816,22	62,282
816,39	64,118
816,56	68,732
816,74	65,874
816,91	65,877
817,08	72,546
817,25	65,979
817,42	59,395
817,60	64,935
817,77	63,345
817,94	63,824
818,11	62,024
818,28	63,295
818,45	66,266
818,63	67,434
818,80	62,821
818,97	60,095
819,14	73,579
819,31	69,865
819,49	68,878
819,66	63,095
819,83	66,455
820,00	66,602
820,17	60,224
820,34	61,507
820,52	71,094
820,69	64,736
820,86	65,785
821,03	61,315
821,20	70,294
821,37	66,875
821,55	59,354
821,72	62,320
821,89	68,203
822,06	73,140
822,23	58,001
822,40	60,883
822,57	67,270
822,75	73,488
822,92	59,924
823,09	60,884
823,26	69,730
823,43	69,574
823,60	62,930
823,77	64,177
823,94	65,413
824,12	69,011
824,29	59,564
824,46	62,101
824,63	71,971
824,80	71,277
824,97	66,146
825,14	64,700
825,31	71,067
825,49	66,676
825,66	65,567
825,83	65,178
826,00	63,825
826,17	73,898
826,34	59,653
826,51	59,819
826,68	62,329
826,85	64,616
827,02	59,224
827,20	56,530
827,37	63,914
827,54	66,166
827,71	65,253
827,88	65,502
828,05	69,568
828,22	61,379
828,39	68,851
828,56	66,763
828,73	66,642
828,90	64,691
829,07	66,005
829,25	68,138
829,42	72,793
829,59	61,939
829,76	60,891
829,93	63,813
830,10	69,697
830,27	65,116
830,44	67,048
830,61	58,868
830,78	81,390
830,95	69,359
831,12	57,208
831,29	64,212
831,46	65,548
831,63	62,270
831,80	68,472
831,97	64,839
832,14	76,182
832,31	81,168
832,48	63,454
832,65	70,326
832,83	72,534
833,00	69,215
833,17	58,035
833,34	70,759
833,51	73,808
833,68	77,310
833,85	67,031
834,02	58,733
834,19	68,599
834,36	72,936
834,53	64,873
834,70	66,892
834,87	85,345
835,04	64,642
835,21	64,366
835,38	63,458
835,55	68,962
835,72	76,362
835,89	64,021
836,06	71,309
836,23	88,119
836,40	68,128
836,57	65,845
836,74	73,762
836,91	74,862
837,08	74,867
837,25	67,735
837,42	55,894
837,59	60,429
837,76	65,915
837,93	66,984
838,09	61,062
838,26	70,601
838,43	79,729
838,60	66,142
838,77	67,185
838,94	68,808
839,11	60,585
839,28	63,337
839,45	66,964
839,62	60,065
839,79	68,916
839,96	79,163
840,13	72,118
840,30	60,381
840,47	67,946
840,64	53,253
840,81	72,946
840,98	68,524
841,15	81,714
841,32	65,993
841,48	72,457
841,65	73,381
841,82	68,201
841,99	61,955
842,16	62,219
842,33	80,395
842,50	75,927
842,67	60,954
842,84	72,211
843,01	68,314
843,18	71,247
843,35	63,307
843,52	66,480
843,68	78,167
843,85	63,298
844,02	61,287
844,19	65,449
844,36	87,316
844,53	66,936
844,70	64,667
844,87	82,855
845,04	77,696
845,21	61,393
845,37	75,259
845,54	61,168
845,71	70,709
845,88	85,161
846,05	67,907
846,22	53,861
846,39	71,662
846,56	82,180
846,72	64,009
846,89	62,210
847,06	85,937
847,23	87,003
847,40	63,346
847,57	65,469
847,74	79,741
847,90	81,720
848,07	66,313
848,24	64,480
848,41	81,899
848,58	77,638
848,75	72,988
848,92	73,107
849,08	71,966
849,25	75,018
849,42	56,548
849,59	69,109
849,76	65,726
849,93	69,362
850,09	76,867
850,26	61,622
850,43	93,166
850,60	66,305
850,77	62,718
850,94	75,781
851,10	72,845
851,27	72,919
851,44	72,212
851,61	64,440
851,78	87,682
851,95	84,820
852,11	54,072
852,28	67,384
852,45	73,983
852,62	79,030
852,79	67,317
852,95	70,095
853,12	90,734
853,29	73,589
853,46	71,283
853,63	69,840
853,79	73,549
853,96	71,279
854,13	81,984
854,30	60,350
854,46	103,515
854,63	80,191
854,80	65,742
854,97	79,175
855,14	88,438
855,30	74,692
855,47	62,189
855,64	73,590
855,81	68,487
855,97	89,902
856,14	83,685
856,31	64,507
856,48	94,255
856,65	100,141
856,81	78,485
856,98	70,427
857,15	75,635
857,32	83,763
857,48	75,613
857,65	80,435
857,82	80,081
857,99	70,218
858,15	78,190
858,32	65,605
858,49	78,902
858,65	98,869
858,82	93,967
858,99	69,129
859,16	95,082
859,32	99,233
859,49	77,044
859,66	71,994
859,83	87,400
859,99	77,056
860,16	74,165
860,33	75,434
860,49	94,632
860,66	91,181
860,83	76,792
861,00	71,538
861,16	88,011
861,33	89,432
861,50	58,506
861,66	64,396
861,83	92,257
862,00	80,673
862,16	71,299
862,33	70,371
862,50	122,283
862,67	80,540
862,83	72,136
863,00	91,552
863,17	116,449
863,33	76,626
863,50	58,392
863,67	79,843
863,83	86,603
864,00	112,498
864,17	62,290
864,33	62,435
864,50	89,543
864,67	83,030
864,83	72,696
865,00	62,957
865,17	78,405
865,33	101,759
865,50	66,234
865,67	79,165
865,83	105,119
866,00	143,375
866,17	82,018
866,33	71,113
866,50	118,316
866,66	89,122
866,83	104,451
867,00	89,826
867,16	136,276
867,33	109,967
867,50	72,190
867,66	72,519
867,83	118,828
868,00	94,146
868,16	70,759
868,33	87,058
868,49	94,008
868,66	111,326
868,83	81,336
868,99	83,097
869,16	116,649
869,32	110,821
869,49	86,700
869,66	67,697
869,82	106,759
869,99	131,588
870,15	54,609
870,32	90,334
870,49	110,337
870,65	162,154
870,82	83,378
870,98	113,616
871,15	127,057
871,32	85,975
871,48	51,653
871,65	71,048
871,81	87,295
871,98	71,915
872,15	55,544
872,31	54,352
872,48	171,958
872,64	100,321
872,81	77,202
872,97	78,997
873,14	137,028
873,31	110,880
873,47	73,218
873,64	125,444
873,80	149,472
873,97	147,246
874,13	55,018
874,30	84,069
874,46	126,684
874,63	100,279
874,80	78,784
874,96	85,881
875,13	169,319
875,29	74,300
875,46	120,755
875,62	52,070
875,79	134,517
875,95	98,497
876,12	71,693
876,28	45,352
876,45	154,548
876,61	53,441
876,78	77,771
876,94	100,422
877,11	107,149
877,27	139,010
877,44	107,604
877,60	79,816
877,77	125,816
877,94	141,121
878,10	82,453
878,27	84,905
878,43	187,681
878,60	94,627
878,76	59,673
878,93	75,246
879,09	161,490
879,26	154,549
879,42	136,612
879,58	144,028
879,75	163,609
879,91	151,845
880,08	28,954
880,24	79,101
880,41	90,241
880,57	114,836
880,74	43,190
880,90	89,086
881,07	108,527
881,23	206,781
881,40	99,762
881,56	105,212
881,73	147,431
881,89	111,431
882,06	72,674
882,22	267,388
882,38	194,742
882,55	198,747
882,71	107,230
882,88	57,829
883,04	245,843
883,21	262,611
883,37	93,635
883,54	89,866
883,70	248,346
883,86	145,611
884,03	78,079
884,19	50,354
884,36	224,000
884,52	277,561
884,69	123,499
884,85	57,760
885,01	259,569
885,18	136,966
885,34	228,872
885,51	40,919
885,67	130,528
>>>>> Data<<<<< Espectral Procesado Extremo
