Fichero De Datos De SpectraSuite
++++++++++++++++++++++++++++++++++++
Fecha: Wed Apr 22 11:39:03 CEST 2009
Usuario: evoflor
Presente Oscuro Del Espectro: Sí
La Referencia de Presente Del Espectro De: Sí
Muestreados de los componentes de Número de espectros: 1
Espectrómetros: USB4F02353
Tiempo de integración (usec): 500000 (USB4F02353)
Promedio de Espectros Hechos un: 5 (USB4F02353)
El Alisar Del Furgón: 0 (USB4F02353)
Párrafo de de Corregir del la del del de Eléctrica del obscuridad: Sí (USB4F02353)
Estrobo/Lámpara Permitido: No (USB4F02353)
Correct for Detector Non-linearity: No (USB4F02353)
Párrafo de de Corregir del la del del de Externa del luz: No (USB4F02353)
Procesado del espectro de Número de pixeles en: 3648
>>>>> Comienza Data<<<<< Espectral Procesado Del EL
177,79	324,885
178,00	324,885
178,22	324,885
178,44	1500,989
178,66	-269,204
178,88	245,570
179,09	-200,043
179,31	272,713
179,53	474,334
179,75	171,416
179,96	839,741
180,18	-463,108
180,40	433,471
180,62	353,873
180,83	-475,165
181,05	-1583,049
181,27	-66810,000
181,49	-59,152
181,70	-6,115
181,92	617,817
182,14	637,681
182,36	173,403
182,58	654,900
182,79	1214,330
183,01	16,859
183,23	264,703
183,45	21,508
183,66	-558,451
183,88	546,529
184,10	-2982,000
184,32	330,223
184,53	333,251
184,75	-140,447
184,97	16,599
185,18	-154,342
185,40	-368,798
185,62	92,051
185,84	139,978
186,05	53,275
186,27	-144,525
186,49	5927,308
186,71	-98,394
186,92	199,407
187,14	-237,622
187,36	167,793
187,58	46,428
187,79	-19,468
188,01	375,904
188,23	-325,313
188,45	-6,125
188,66	161,652
188,88	-3522,000
189,10	-1928,100
189,31	-75,614
189,53	-37,391
189,75	227,523
189,97	239,654
190,18	-103,391
190,40	588,882
190,62	103,753
190,83	-184,261
191,05	130,541
191,27	386,314
191,49	301,262
191,70	-775,529
191,92	364,322
192,14	-16,172
192,35	404,005
192,57	1908,857
192,79	-122,891
193,01	202,732
193,22	152,569
193,44	-135,512
193,66	73,233
193,87	127,645
194,09	-85,430
194,31	107,822
194,53	611,958
194,74	38,081
194,96	40,550
195,18	104,123
195,39	-541,979
195,61	-88,541
195,83	-186,326
196,04	79,834
196,26	-28,191
196,48	-40,661
196,70	326,064
196,91	-9,792
197,13	112,177
197,35	-64,907
197,56	541,207
197,78	2016,493
198,00	372,797
198,21	180,146
198,43	-932,616
198,65	123,801
198,86	91,403
199,08	278,066
199,30	115,202
199,51	-346,612
199,73	171,056
199,95	359,183
200,16	333,115
200,38	231,744
200,60	214,708
200,81	175,824
201,03	166,875
201,25	-1937,100
201,46	161,766
201,68	76,541
201,90	2275,227
202,11	-443,931
202,33	166,804
202,55	216,375
202,76	-57,906
202,98	-93,345
203,20	-130,817
203,41	-474,789
203,63	78,952
203,85	-126210,000
204,06	-1,601
204,28	-13,518
204,50	137,180
204,71	243,657
204,93	-135,120
205,15	46,717
205,36	-286,061
205,58	204,242
205,80	-256,369
206,01	70,467
206,23	177,945
206,45	221,103
206,66	164,753
206,88	7,210
207,10	250,023
207,31	351,934
207,53	172,886
207,75	87,452
207,96	1042,612
208,18	-152,406
208,39	40,493
208,61	2628,857
208,83	-223,507
209,04	364,690
209,26	-623,088
209,48	188,290
209,69	226,790
209,91	508,480
210,13	10,830
210,34	68,063
210,56	158,777
210,77	-1192,205
210,99	113,714
211,21	3665,294
211,42	-0,307
211,64	-12,631
211,86	227,185
212,07	281,228
212,29	146,608
212,50	98,417
212,72	121,962
212,94	41,953
213,15	104,578
213,37	151,906
213,58	-156,120
213,80	-746,786
214,02	9753,529
214,23	153,120
214,45	319,377
214,67	-2230,610
214,88	-320,839
215,10	-231,708
215,31	136,048
215,53	-60,886
215,75	172,539
215,96	2159,068
216,18	738,169
216,39	255,647
216,61	474,039
216,83	225,937
217,04	1478,764
217,26	13,403
217,47	136,248
217,69	179,433
217,91	6,418
218,12	-61410,000
218,34	139,576
218,55	446,976
218,77	92,838
218,99	65,140
219,20	-91,725
219,42	428,369
219,63	112,772
219,85	-112,635
220,06	153,115
220,28	144,402
220,50	21,884
220,71	62,968
220,93	3637,925
221,14	-1280,100
221,36	-24,493
221,58	86,345
221,79	96,392
222,01	1219,914
222,22	84,276
222,44	32,697
222,65	79,924
222,87	146,224
223,09	166,720
223,30	90,104
223,52	138,937
223,73	182,239
223,95	52,268
224,16	109,918
224,38	113,531
224,60	84,145
224,81	115,336
225,03	71,597
225,24	194,012
225,46	-20,581
225,67	-16,633
225,89	-65,694
226,10	534,669
226,32	1204,080
226,54	49,477
226,75	-1,823
226,97	162,047
227,18	188,660
227,40	42,262
227,61	48,225
227,83	53,348
228,04	117,436
228,26	2,984
228,47	59,070
228,69	171,112
228,91	86,008
229,12	122,174
229,34	42,464
229,55	88,113
229,77	21,854
229,98	-19,315
230,20	77,770
230,41	23,369
230,63	68,057
230,84	35,580
231,06	32,237
231,27	29,510
231,49	62,363
231,71	61,509
231,92	32,369
232,14	49,574
232,35	88,094
232,57	74,158
232,78	20,674
233,00	58,953
233,21	41,487
233,43	21,439
233,64	19,764
233,86	42,442
234,07	27,714
234,29	29,039
234,50	21,322
234,72	38,625
234,93	29,418
235,15	36,100
235,36	32,329
235,58	34,691
235,79	61,126
236,01	31,626
236,22	20,488
236,44	54,118
236,65	23,321
236,87	41,857
237,08	23,609
237,30	12,787
237,51	32,475
237,73	15,471
237,94	19,126
238,16	32,748
238,37	12,043
238,59	34,714
238,80	26,819
239,02	19,632
239,23	28,743
239,45	9,798
239,66	25,721
239,88	45,486
240,09	31,565
240,31	16,035
240,52	17,553
240,74	28,569
240,95	22,203
241,17	8,979
241,38	15,453
241,60	21,277
241,81	30,847
242,03	17,910
242,24	13,627
242,46	33,254
242,67	13,913
242,89	19,698
243,10	21,572
243,32	15,083
243,53	24,311
243,75	12,729
243,96	16,958
244,18	21,489
244,39	18,361
244,60	18,995
244,82	13,951
245,03	30,012
245,25	20,422
245,46	35,748
245,68	14,683
245,89	26,483
246,11	18,284
246,32	20,163
246,54	11,473
246,75	17,663
246,97	24,928
247,18	32,200
247,39	12,839
247,61	19,158
247,82	10,057
248,04	15,816
248,25	17,545
248,47	19,715
248,68	17,879
248,90	15,582
249,11	20,394
249,33	31,642
249,54	17,871
249,75	15,227
249,97	14,193
250,18	22,295
250,40	23,832
250,61	6,581
250,83	10,154
251,04	11,023
251,25	26,241
251,47	7,557
251,68	20,530
251,90	20,305
252,11	20,746
252,33	14,945
252,54	17,466
252,76	14,159
252,97	11,678
253,18	10,556
253,40	12,939
253,61	8,990
253,83	21,450
254,04	16,949
254,25	15,751
254,47	11,310
254,68	12,147
254,90	14,081
255,11	15,780
255,33	19,327
255,54	13,386
255,75	14,239
255,97	17,726
256,18	12,384
256,40	15,152
256,61	15,848
256,82	11,835
257,04	13,983
257,25	13,445
257,47	15,566
257,68	12,121
257,89	20,419
258,11	19,718
258,32	17,235
258,54	16,642
258,75	21,873
258,96	19,681
259,18	15,633
259,39	11,179
259,61	17,297
259,82	14,272
260,03	17,053
260,25	17,372
260,46	12,540
260,68	15,357
260,89	13,450
261,10	13,694
261,32	16,099
261,53	15,779
261,75	15,392
261,96	9,657
262,17	18,922
262,39	20,851
262,60	8,431
262,81	8,773
263,03	21,078
263,24	13,973
263,46	15,016
263,67	10,568
263,88	18,196
264,10	18,098
264,31	13,366
264,52	16,777
264,74	18,986
264,95	15,601
265,17	16,130
265,38	14,006
265,59	18,760
265,81	19,689
266,02	10,643
266,23	9,599
266,45	21,975
266,66	20,652
266,87	16,232
267,09	16,239
267,30	19,174
267,52	19,731
267,73	13,733
267,94	15,586
268,16	14,897
268,37	14,881
268,58	13,553
268,80	11,125
269,01	12,289
269,22	15,371
269,44	14,118
269,65	17,749
269,86	15,827
270,08	13,745
270,29	14,620
270,50	15,388
270,72	12,821
270,93	14,149
271,14	12,427
271,36	13,179
271,57	15,092
271,78	17,588
272,00	16,747
272,21	17,203
272,42	14,570
272,64	17,767
272,85	13,389
273,06	14,111
273,28	19,884
273,49	15,474
273,70	17,875
273,92	15,615
274,13	17,383
274,34	13,135
274,56	15,636
274,77	16,278
274,98	18,576
275,20	15,374
275,41	16,928
275,62	15,650
275,84	17,026
276,05	21,138
276,26	15,277
276,47	10,970
276,69	16,646
276,90	17,757
277,11	14,339
277,33	14,126
277,54	15,776
277,75	17,425
277,97	15,412
278,18	14,368
278,39	16,558
278,61	15,337
278,82	16,374
279,03	14,275
279,24	10,732
279,46	11,378
279,67	21,039
279,88	14,174
280,10	18,376
280,31	10,176
280,52	12,903
280,73	13,423
280,95	17,200
281,16	15,923
281,37	15,334
281,59	17,752
281,80	17,323
282,01	14,844
282,22	14,494
282,44	11,748
282,65	19,350
282,86	17,265
283,08	12,785
283,29	18,054
283,50	16,408
283,71	16,114
283,93	10,967
284,14	19,033
284,35	14,001
284,56	15,529
284,78	12,423
284,99	16,393
285,20	17,975
285,42	14,593
285,63	14,383
285,84	12,192
286,05	12,359
286,27	14,628
286,48	13,392
286,69	12,986
286,90	10,263
287,12	11,790
287,33	14,410
287,54	14,871
287,75	16,241
287,97	14,162
288,18	14,428
288,39	11,961
288,60	14,980
288,82	14,103
289,03	14,273
289,24	13,421
289,45	18,431
289,67	15,819
289,88	12,475
290,09	14,151
290,30	15,500
290,52	13,279
290,73	13,439
290,94	10,367
291,15	13,850
291,37	14,485
291,58	12,697
291,79	11,990
292,00	15,621
292,21	13,548
292,43	15,435
292,64	10,012
292,85	11,603
293,06	16,457
293,28	13,545
293,49	12,596
293,70	16,965
293,91	12,103
294,12	13,927
294,34	12,938
294,55	11,737
294,76	12,905
294,97	15,307
295,19	10,339
295,40	14,886
295,61	15,168
295,82	9,336
296,03	12,685
296,25	15,371
296,46	11,918
296,67	8,547
296,88	9,801
297,09	15,731
297,31	12,833
297,52	14,422
297,73	11,960
297,94	14,628
298,15	14,121
298,37	12,056
298,58	15,104
298,79	15,398
299,00	12,207
299,21	13,298
299,43	10,777
299,64	18,281
299,85	13,648
300,06	11,256
300,27	13,566
300,49	17,157
300,70	11,914
300,91	14,982
301,12	12,509
301,33	15,904
301,54	12,565
301,76	13,723
301,97	13,403
302,18	12,170
302,39	16,060
302,60	20,973
302,82	13,734
303,03	16,388
303,24	12,802
303,45	15,126
303,66	14,299
303,87	10,952
304,09	16,150
304,30	11,209
304,51	11,074
304,72	12,455
304,93	15,809
305,14	13,185
305,36	13,253
305,57	10,173
305,78	15,098
305,99	11,146
306,20	13,348
306,41	11,478
306,62	10,031
306,84	11,669
307,05	10,432
307,26	14,281
307,47	14,615
307,68	12,372
307,89	11,337
308,11	13,961
308,32	10,679
308,53	13,133
308,74	10,789
308,95	12,844
309,16	14,001
309,37	15,130
309,59	12,035
309,80	12,005
310,01	12,428
310,22	15,159
310,43	11,151
310,64	12,992
310,85	15,651
311,06	11,752
311,28	15,183
311,49	12,618
311,70	16,979
311,91	11,259
312,12	13,036
312,33	15,135
312,54	14,275
312,75	13,668
312,97	14,006
313,18	13,974
313,39	12,080
313,60	14,902
313,81	14,960
314,02	15,878
314,23	14,974
314,44	11,958
314,65	14,026
314,87	11,766
315,08	13,444
315,29	15,631
315,50	15,037
315,71	17,132
315,92	17,602
316,13	12,023
316,34	13,792
316,55	10,710
316,77	10,879
316,98	12,133
317,19	11,582
317,40	15,743
317,61	15,837
317,82	11,724
318,03	12,311
318,24	14,285
318,45	16,685
318,66	13,809
318,87	10,780
319,09	14,519
319,30	14,841
319,51	14,604
319,72	13,032
319,93	12,699
320,14	15,500
320,35	13,798
320,56	10,011
320,77	12,686
320,98	18,348
321,19	15,241
321,40	13,435
321,62	13,666
321,83	10,480
322,04	14,243
322,25	13,617
322,46	16,859
322,67	12,599
322,88	14,099
323,09	13,563
323,30	14,307
323,51	15,075
323,72	15,560
323,93	12,835
324,14	10,790
324,35	9,559
324,56	11,482
324,77	12,901
324,99	11,934
325,20	9,267
325,41	15,810
325,62	15,322
325,83	9,924
326,04	11,587
326,25	14,794
326,46	9,334
326,67	12,828
326,88	13,670
327,09	11,623
327,30	11,707
327,51	12,942
327,72	13,422
327,93	14,709
328,14	10,271
328,35	11,999
328,56	14,088
328,77	13,714
328,98	11,816
329,19	14,523
329,40	14,395
329,61	10,165
329,82	10,306
330,04	16,243
330,25	12,779
330,46	14,202
330,67	9,890
330,88	13,547
331,09	11,841
331,30	12,526
331,51	12,129
331,72	12,391
331,93	14,492
332,14	12,503
332,35	13,257
332,56	13,847
332,77	12,076
332,98	10,776
333,19	12,201
333,40	16,559
333,61	9,583
333,82	14,023
334,03	13,271
334,24	16,211
334,45	12,795
334,66	12,144
334,87	12,202
335,08	11,294
335,29	10,900
335,50	12,537
335,71	11,202
335,92	13,975
336,13	15,691
336,34	7,335
336,55	12,944
336,76	17,306
336,97	11,725
337,18	10,183
337,39	13,094
337,60	12,655
337,81	10,536
338,02	10,987
338,23	12,730
338,44	11,981
338,65	11,753
338,86	14,292
339,07	10,573
339,28	12,657
339,49	12,336
339,70	10,919
339,91	11,244
340,11	16,257
340,32	11,051
340,53	10,430
340,74	10,167
340,95	11,427
341,16	12,837
341,37	12,748
341,58	9,971
341,79	13,272
342,00	11,407
342,21	9,500
342,42	12,605
342,63	14,148
342,84	9,036
343,05	12,181
343,26	14,494
343,47	11,695
343,68	11,231
343,89	11,959
344,10	14,595
344,31	14,234
344,52	11,790
344,73	12,867
344,94	11,907
345,14	13,737
345,35	15,807
345,56	15,062
345,77	14,205
345,98	7,990
346,19	12,681
346,40	11,780
346,61	12,935
346,82	12,764
347,03	10,086
347,24	13,608
347,45	13,057
347,66	14,806
347,87	11,396
348,08	15,688
348,28	10,101
348,49	13,578
348,70	14,020
348,91	10,193
349,12	6,710
349,33	23,581
349,54	13,273
349,75	11,688
349,96	11,530
350,17	15,645
350,38	9,858
350,59	14,492
350,80	10,832
351,00	14,206
351,21	15,909
351,42	11,427
351,63	8,965
351,84	13,208
352,05	15,888
352,26	11,327
352,47	9,993
352,68	12,254
352,89	11,849
353,09	15,990
353,30	9,878
353,51	13,099
353,72	14,682
353,93	14,531
354,14	10,732
354,35	10,584
354,56	16,290
354,77	14,178
354,98	10,354
355,18	14,259
355,39	13,892
355,60	10,631
355,81	12,738
356,02	10,778
356,23	14,752
356,44	12,541
356,65	11,700
356,85	19,452
357,06	15,523
357,27	14,077
357,48	10,922
357,69	16,129
357,90	12,174
358,11	6,914
358,32	11,911
358,52	14,977
358,73	12,297
358,94	11,079
359,15	15,320
359,36	14,044
359,57	12,477
359,78	11,663
359,98	13,547
360,19	9,194
360,40	11,317
360,61	13,459
360,82	14,267
361,03	17,773
361,24	13,849
361,44	12,621
361,65	11,815
361,86	12,780
362,07	14,517
362,28	10,606
362,49	10,564
362,70	11,619
362,90	11,616
363,11	9,589
363,32	9,530
363,53	11,473
363,74	15,621
363,95	14,531
364,15	9,495
364,36	15,232
364,57	11,149
364,78	11,567
364,99	9,354
365,20	12,541
365,40	14,386
365,61	11,690
365,82	13,420
366,03	10,918
366,24	14,293
366,45	11,089
366,65	14,243
366,86	11,095
367,07	12,380
367,28	12,092
367,49	10,963
367,69	17,194
367,90	13,359
368,11	14,015
368,32	11,021
368,53	12,966
368,73	14,549
368,94	11,078
369,15	14,093
369,36	16,055
369,57	14,000
369,78	9,967
369,98	14,866
370,19	15,067
370,40	12,297
370,61	13,805
370,82	13,442
371,02	16,105
371,23	15,211
371,44	10,614
371,65	15,368
371,85	16,130
372,06	13,539
372,27	9,798
372,48	11,453
372,69	12,238
372,89	12,227
373,10	13,842
373,31	15,218
373,52	11,753
373,73	16,329
373,93	12,744
374,14	14,226
374,35	13,347
374,56	15,097
374,76	14,418
374,97	14,343
375,18	13,804
375,39	15,138
375,60	11,303
375,80	13,441
376,01	12,823
376,22	17,433
376,43	13,680
376,63	15,579
376,84	12,981
377,05	16,884
377,26	10,913
377,46	12,449
377,67	14,857
377,88	14,759
378,09	12,554
378,29	11,878
378,50	15,844
378,71	18,176
378,92	13,979
379,12	16,743
379,33	13,029
379,54	14,516
379,75	15,566
379,95	13,894
380,16	18,563
380,37	17,593
380,58	12,839
380,78	14,614
380,99	13,877
381,20	14,216
381,41	14,825
381,61	17,550
381,82	15,894
382,03	17,073
382,24	15,868
382,44	16,384
382,65	12,381
382,86	18,935
383,06	15,520
383,27	16,057
383,48	16,848
383,69	17,190
383,89	18,912
384,10	19,407
384,31	19,120
384,51	19,508
384,72	14,002
384,93	15,003
385,14	15,955
385,34	12,552
385,55	10,679
385,76	13,397
385,96	19,115
386,17	17,005
386,38	19,154
386,59	16,224
386,79	15,522
387,00	17,018
387,21	17,799
387,41	18,533
387,62	16,593
387,83	18,566
388,03	16,021
388,24	15,098
388,45	19,665
388,66	18,267
388,86	16,552
389,07	15,880
389,28	25,647
389,48	17,567
389,69	17,165
389,90	19,019
390,10	20,664
390,31	20,448
390,52	16,271
390,72	19,225
390,93	17,907
391,14	19,606
391,34	17,305
391,55	20,150
391,76	20,908
391,96	19,266
392,17	20,724
392,38	21,208
392,58	20,691
392,79	21,354
393,00	22,539
393,20	17,359
393,41	21,094
393,62	20,054
393,82	20,818
394,03	21,304
394,24	18,380
394,44	24,378
394,65	20,883
394,86	18,506
395,06	23,240
395,27	20,918
395,48	19,806
395,68	20,863
395,89	23,414
396,10	24,448
396,30	21,889
396,51	20,587
396,72	22,322
396,92	21,230
397,13	20,820
397,34	19,662
397,54	24,395
397,75	19,223
397,95	19,532
398,16	22,399
398,37	22,478
398,57	20,801
398,78	25,913
398,99	27,675
399,19	25,181
399,40	28,595
399,60	22,083
399,81	23,302
400,02	26,727
400,22	24,454
400,43	20,759
400,64	24,376
400,84	21,949
401,05	27,354
401,25	24,983
401,46	25,475
401,67	26,088
401,87	24,735
402,08	20,346
402,29	21,398
402,49	28,436
402,70	29,464
402,90	23,229
403,11	27,115
403,32	26,261
403,52	21,538
403,73	27,003
403,93	27,949
404,14	29,061
404,35	26,387
404,55	22,404
404,76	23,587
404,96	25,700
405,17	29,498
405,38	29,124
405,58	22,705
405,79	28,946
405,99	28,058
406,20	27,036
406,40	23,485
406,61	30,715
406,82	27,388
407,02	30,601
407,23	29,308
407,43	26,160
407,64	28,157
407,85	30,324
408,05	26,388
408,26	35,871
408,46	31,023
408,67	24,629
408,87	29,589
409,08	27,202
409,29	34,408
409,49	30,090
409,70	28,774
409,90	33,412
410,11	32,253
410,31	34,122
410,52	28,227
410,72	30,452
410,93	31,733
411,14	29,055
411,34	27,116
411,55	34,205
411,75	31,597
411,96	29,810
412,16	29,940
412,37	30,514
412,57	34,427
412,78	30,844
412,99	27,705
413,19	35,101
413,40	31,269
413,60	31,915
413,81	28,062
414,01	32,826
414,22	25,876
414,42	31,415
414,63	31,078
414,83	33,472
415,04	37,022
415,24	30,916
415,45	29,462
415,65	33,282
415,86	37,311
416,07	29,874
416,27	32,280
416,48	35,749
416,68	37,232
416,89	30,545
417,09	32,713
417,30	34,999
417,50	31,510
417,71	37,674
417,91	38,435
418,12	33,653
418,32	32,969
418,53	32,311
418,73	31,006
418,94	31,537
419,14	36,759
419,35	29,778
419,55	32,569
419,76	35,387
419,96	33,295
420,17	33,998
420,37	31,771
420,58	36,443
420,78	35,368
420,99	33,791
421,19	34,627
421,40	37,381
421,60	36,844
421,81	33,544
422,01	33,367
422,22	33,200
422,42	40,320
422,63	33,998
422,83	34,459
423,04	36,975
423,24	37,608
423,45	31,713
423,65	35,435
423,86	40,940
424,06	39,143
424,27	31,516
424,47	32,299
424,67	32,741
424,88	35,095
425,08	36,402
425,29	39,436
425,49	34,239
425,70	33,279
425,90	38,760
426,11	32,279
426,31	35,001
426,52	33,749
426,72	31,089
426,93	28,519
427,13	37,056
427,33	34,123
427,54	39,254
427,74	37,778
427,95	37,047
428,15	32,081
428,36	33,152
428,56	35,104
428,77	33,210
428,97	34,649
429,18	37,242
429,38	33,979
429,58	42,176
429,79	35,253
429,99	33,573
430,20	29,809
430,40	38,508
430,61	33,803
430,81	34,093
431,01	36,654
431,22	37,101
431,42	38,478
431,63	31,821
431,83	36,996
432,04	37,148
432,24	40,319
432,44	31,293
432,65	33,031
432,85	34,342
433,06	34,430
433,26	31,750
433,47	30,366
433,67	33,621
433,87	33,941
434,08	31,695
434,28	35,696
434,49	34,011
434,69	36,997
434,89	32,418
435,10	30,938
435,30	40,275
435,51	28,213
435,71	32,527
435,91	32,213
436,12	32,893
436,32	32,732
436,53	34,059
436,73	33,580
436,93	35,196
437,14	36,549
437,34	40,477
437,55	32,157
437,75	36,566
437,95	36,397
438,16	34,411
438,36	32,946
438,57	32,991
438,77	33,843
438,97	39,661
439,18	36,734
439,38	37,417
439,58	36,478
439,79	39,250
439,99	35,425
440,20	36,224
440,40	38,460
440,60	35,450
440,81	34,593
441,01	35,293
441,21	39,289
441,42	37,352
441,62	40,795
441,83	36,118
442,03	34,365
442,23	37,861
442,44	36,647
442,64	37,014
442,84	35,828
443,05	33,650
443,25	33,983
443,45	36,938
443,66	35,706
443,86	35,939
444,06	40,412
444,27	36,109
444,47	37,802
444,67	36,041
444,88	38,963
445,08	38,738
445,28	37,282
445,49	36,309
445,69	32,994
445,90	37,227
446,10	41,328
446,30	40,911
446,51	36,011
446,71	37,819
446,91	42,821
447,12	43,489
447,32	37,681
447,52	41,368
447,72	40,855
447,93	38,530
448,13	35,506
448,33	41,350
448,54	42,155
448,74	34,153
448,94	35,420
449,15	41,608
449,35	40,248
449,55	34,551
449,76	37,401
449,96	38,255
450,16	39,827
450,37	36,130
450,57	42,950
450,77	35,966
450,98	39,788
451,18	38,995
451,38	40,392
451,58	37,586
451,79	45,247
451,99	41,548
452,19	40,476
452,40	41,440
452,60	34,711
452,80	37,966
453,00	43,579
453,21	43,342
453,41	39,103
453,61	40,890
453,82	38,908
454,02	39,486
454,22	43,696
454,42	43,113
454,63	37,002
454,83	39,734
455,03	40,173
455,24	39,735
455,44	39,488
455,64	40,276
455,84	35,220
456,05	36,140
456,25	38,052
456,45	42,879
456,65	43,790
456,86	39,048
457,06	41,149
457,26	48,261
457,47	43,258
457,67	40,871
457,87	38,625
458,07	40,531
458,28	44,683
458,48	43,742
458,68	37,874
458,88	45,780
459,09	39,723
459,29	54,300
459,49	41,750
459,69	44,154
459,90	41,431
460,10	39,088
460,30	42,901
460,50	41,505
460,71	40,179
460,91	39,242
461,11	41,303
461,31	38,304
461,52	45,999
461,72	41,924
461,92	42,011
462,12	49,033
462,32	40,990
462,53	41,158
462,73	39,725
462,93	42,800
463,13	40,042
463,34	43,477
463,54	43,493
463,74	38,936
463,94	41,477
464,14	42,930
464,35	39,167
464,55	48,184
464,75	47,206
464,95	45,503
465,16	41,824
465,36	46,487
465,56	39,714
465,76	39,724
465,96	41,772
466,17	38,982
466,37	43,744
466,57	43,985
466,77	41,568
466,97	41,543
467,18	47,743
467,38	42,542
467,58	44,563
467,78	43,432
467,98	44,570
468,19	45,420
468,39	48,174
468,59	47,016
468,79	45,746
468,99	43,884
469,19	43,268
469,40	48,838
469,60	38,442
469,80	41,684
470,00	45,690
470,20	47,894
470,41	40,479
470,61	45,802
470,81	44,871
471,01	43,925
471,21	42,605
471,41	43,735
471,62	45,552
471,82	42,764
472,02	43,482
472,22	41,790
472,42	44,077
472,62	46,649
472,83	45,163
473,03	47,834
473,23	46,743
473,43	49,739
473,63	44,712
473,83	46,706
474,03	48,312
474,24	49,573
474,44	45,380
474,64	43,999
474,84	44,606
475,04	44,072
475,24	44,966
475,45	46,280
475,65	45,777
475,85	48,581
476,05	40,276
476,25	41,509
476,45	44,146
476,65	51,948
476,85	44,590
477,06	47,010
477,26	45,543
477,46	44,508
477,66	46,698
477,86	47,766
478,06	45,602
478,26	49,028
478,46	45,794
478,67	48,323
478,87	45,474
479,07	45,317
479,27	48,722
479,47	45,341
479,67	43,924
479,87	44,917
480,07	46,830
480,28	46,787
480,48	43,000
480,68	45,089
480,88	51,692
481,08	48,771
481,28	47,369
481,48	45,767
481,68	44,718
481,88	44,918
482,08	45,940
482,29	49,887
482,49	44,582
482,69	45,143
482,89	45,225
483,09	46,883
483,29	45,869
483,49	43,760
483,69	46,002
483,89	45,091
484,09	44,263
484,29	45,224
484,50	45,292
484,70	44,473
484,90	43,486
485,10	44,148
485,30	45,603
485,50	49,615
485,70	44,576
485,90	43,590
486,10	39,529
486,30	43,374
486,50	45,039
486,70	44,228
486,90	43,720
487,10	48,084
487,30	42,681
487,51	44,624
487,71	39,206
487,91	44,022
488,11	45,236
488,31	42,400
488,51	46,772
488,71	42,920
488,91	46,168
489,11	44,213
489,31	44,295
489,51	43,252
489,71	47,933
489,91	45,344
490,11	44,401
490,31	44,060
490,51	47,122
490,71	43,264
490,91	43,987
491,11	47,717
491,31	46,971
491,51	42,775
491,72	45,841
491,92	47,805
492,12	46,335
492,32	44,374
492,52	48,102
492,72	44,716
492,92	43,833
493,12	44,176
493,32	43,735
493,52	42,788
493,72	45,407
493,92	47,088
494,12	45,281
494,32	45,769
494,52	44,762
494,72	46,433
494,92	45,051
495,12	47,440
495,32	49,599
495,52	44,401
495,72	46,976
495,92	49,385
496,12	50,923
496,32	44,743
496,52	45,377
496,72	47,446
496,92	48,165
497,12	47,017
497,32	48,582
497,52	47,525
497,72	49,362
497,92	50,173
498,12	44,556
498,32	47,080
498,52	49,525
498,72	44,604
498,92	45,999
499,12	50,373
499,32	46,184
499,52	48,410
499,72	48,942
499,92	50,176
500,12	48,810
500,32	52,524
500,52	46,592
500,72	53,994
500,91	52,053
501,11	48,958
501,31	43,567
501,51	48,060
501,71	53,211
501,91	51,383
502,11	47,358
502,31	49,373
502,51	49,398
502,71	46,249
502,91	48,374
503,11	51,368
503,31	49,230
503,51	43,655
503,71	48,184
503,91	50,399
504,11	47,213
504,31	47,101
504,51	50,395
504,71	52,338
504,91	47,844
505,10	48,674
505,30	49,741
505,50	48,469
505,70	49,271
505,90	49,712
506,10	46,637
506,30	51,523
506,50	50,977
506,70	49,799
506,90	49,108
507,10	51,165
507,30	47,678
507,50	50,007
507,70	47,854
507,89	48,932
508,09	49,091
508,29	48,986
508,49	48,740
508,69	47,951
508,89	46,651
509,09	46,854
509,29	48,269
509,49	51,691
509,69	50,251
509,89	49,692
510,09	47,186
510,28	50,768
510,48	50,292
510,68	49,896
510,88	49,228
511,08	48,353
511,28	48,305
511,48	50,382
511,68	49,924
511,88	45,076
512,07	50,635
512,27	49,550
512,47	50,177
512,67	45,767
512,87	45,917
513,07	49,166
513,27	46,691
513,47	48,698
513,67	44,130
513,86	49,472
514,06	48,431
514,26	49,838
514,46	52,044
514,66	47,406
514,86	50,742
515,06	51,270
515,26	51,970
515,45	48,940
515,65	48,465
515,85	49,522
516,05	49,162
516,25	49,206
516,45	52,722
516,65	47,519
516,84	50,296
517,04	51,050
517,24	46,894
517,44	48,677
517,64	51,236
517,84	50,007
518,04	47,930
518,23	51,799
518,43	51,558
518,63	45,591
518,83	47,893
519,03	49,799
519,23	50,945
519,42	49,578
519,62	50,782
519,82	48,901
520,02	48,570
520,22	49,539
520,42	47,388
520,61	49,970
520,81	50,354
521,01	53,378
521,21	48,434
521,41	48,474
521,61	50,988
521,80	47,726
522,00	49,870
522,20	51,232
522,40	51,540
522,60	48,772
522,79	48,677
522,99	50,360
523,19	47,926
523,39	48,530
523,59	50,355
523,78	52,175
523,98	47,705
524,18	49,260
524,38	46,704
524,58	46,455
524,77	52,958
524,97	51,318
525,17	48,517
525,37	51,547
525,57	52,838
525,76	46,044
525,96	48,988
526,16	46,116
526,36	48,600
526,56	49,521
526,75	44,424
526,95	52,300
527,15	48,665
527,35	48,009
527,55	49,565
527,74	52,719
527,94	47,093
528,14	47,463
528,34	48,459
528,53	46,169
528,73	50,045
528,93	48,780
529,13	48,118
529,32	48,651
529,52	49,426
529,72	47,004
529,92	48,250
530,12	48,626
530,31	44,686
530,51	51,521
530,71	49,944
530,91	52,639
531,10	46,013
531,30	49,547
531,50	46,947
531,70	48,410
531,89	47,641
532,09	49,561
532,29	46,673
532,49	49,176
532,68	48,235
532,88	46,639
533,08	45,365
533,28	47,520
533,47	47,742
533,67	47,702
533,87	47,166
534,06	52,931
534,26	49,310
534,46	46,711
534,66	47,927
534,85	48,061
535,05	45,061
535,25	48,746
535,45	44,404
535,64	49,447
535,84	46,024
536,04	45,411
536,23	45,790
536,43	50,523
536,63	45,688
536,83	47,960
537,02	44,369
537,22	45,529
537,42	45,514
537,61	46,264
537,81	46,569
538,01	46,402
538,20	47,179
538,40	43,901
538,60	45,209
538,80	42,415
538,99	45,197
539,19	44,819
539,39	41,123
539,58	43,963
539,78	40,922
539,98	41,164
540,17	39,419
540,37	39,603
540,57	38,737
540,76	37,346
540,96	37,283
541,16	41,357
541,36	36,635
541,55	34,790
541,75	34,897
541,95	36,288
542,14	35,430
542,34	33,675
542,54	33,077
542,73	35,664
542,93	34,547
543,13	33,938
543,32	33,435
543,52	34,413
543,72	33,444
543,91	35,224
544,11	34,820
544,31	33,242
544,50	36,057
544,70	36,950
544,89	34,704
545,09	34,537
545,29	35,576
545,48	36,249
545,68	34,129
545,88	37,082
546,07	36,111
546,27	35,824
546,47	39,224
546,66	39,696
546,86	40,989
547,06	38,890
547,25	38,146
547,45	40,227
547,64	41,177
547,84	44,185
548,04	41,648
548,23	44,992
548,43	41,083
548,63	43,937
548,82	42,904
549,02	40,804
549,21	42,840
549,41	42,118
549,61	45,326
549,80	43,129
550,00	43,829
550,20	43,377
550,39	43,419
550,59	43,788
550,78	43,618
550,98	42,793
551,18	45,596
551,37	44,428
551,57	45,070
551,76	45,994
551,96	43,208
552,16	44,697
552,35	45,522
552,55	45,988
552,74	44,672
552,94	49,089
553,14	42,968
553,33	45,653
553,53	44,657
553,72	48,765
553,92	47,446
554,12	44,065
554,31	47,061
554,51	47,013
554,70	44,088
554,90	45,449
555,09	47,921
555,29	49,604
555,49	47,008
555,68	47,398
555,88	46,312
556,07	46,711
556,27	50,423
556,46	45,960
556,66	45,035
556,86	52,373
557,05	50,287
557,25	46,152
557,44	47,288
557,64	45,936
557,83	50,287
558,03	46,947
558,22	47,220
558,42	46,085
558,62	49,476
558,81	46,365
559,01	46,511
559,20	47,403
559,40	49,095
559,59	45,888
559,79	46,686
559,98	49,578
560,18	51,574
560,37	48,509
560,57	48,537
560,76	46,117
560,96	44,801
561,16	48,947
561,35	45,722
561,55	50,892
561,74	47,860
561,94	49,327
562,13	47,177
562,33	49,174
562,52	45,786
562,72	49,888
562,91	45,935
563,11	49,772
563,30	49,654
563,50	46,181
563,69	45,505
563,89	46,985
564,08	47,486
564,28	46,376
564,47	46,214
564,67	45,951
564,86	50,658
565,06	47,459
565,25	47,210
565,45	45,483
565,64	52,599
565,84	45,555
566,03	46,424
566,23	48,350
566,42	48,616
566,62	46,931
566,81	47,287
567,01	46,596
567,20	49,233
567,40	47,409
567,59	45,463
567,79	47,942
567,98	48,191
568,18	51,159
568,37	49,168
568,57	48,500
568,76	49,195
568,96	49,217
569,15	47,626
569,35	47,979
569,54	48,953
569,73	48,971
569,93	47,995
570,12	48,313
570,32	50,226
570,51	47,968
570,71	49,030
570,90	48,282
571,10	48,348
571,29	47,316
571,49	47,747
571,68	48,991
571,87	46,934
572,07	47,499
572,26	43,538
572,46	47,146
572,65	47,993
572,85	45,584
573,04	45,561
573,24	46,876
573,43	49,727
573,62	49,316
573,82	48,065
574,01	47,605
574,21	46,336
574,40	46,627
574,60	45,634
574,79	48,718
574,98	47,334
575,18	47,269
575,37	45,452
575,57	47,712
575,76	47,140
575,96	46,088
576,15	46,288
576,34	46,531
576,54	46,801
576,73	46,891
576,93	46,119
577,12	48,381
577,31	48,013
577,51	45,233
577,70	47,401
577,90	48,078
578,09	44,952
578,28	46,185
578,48	46,555
578,67	50,036
578,87	46,552
579,06	45,775
579,25	46,349
579,45	48,857
579,64	45,502
579,84	46,151
580,03	44,064
580,22	49,319
580,42	45,192
580,61	45,298
580,81	45,212
581,00	48,592
581,19	46,323
581,39	45,746
581,58	45,860
581,77	47,063
581,97	47,076
582,16	44,937
582,35	45,702
582,55	47,362
582,74	48,672
582,94	46,234
583,13	44,545
583,32	46,456
583,52	45,727
583,71	47,305
583,90	47,599
584,10	47,217
584,29	47,281
584,48	45,484
584,68	46,524
584,87	48,228
585,06	47,146
585,26	46,684
585,45	44,616
585,65	47,691
585,84	46,355
586,03	46,415
586,23	43,695
586,42	45,550
586,61	48,519
586,81	48,536
587,00	46,859
587,19	46,566
587,39	48,796
587,58	47,181
587,77	47,686
587,97	46,951
588,16	46,741
588,35	48,317
588,54	48,806
588,74	47,459
588,93	48,176
589,12	47,661
589,32	47,799
589,51	47,658
589,70	47,966
589,90	45,069
590,09	48,150
590,28	50,515
590,48	47,599
590,67	47,367
590,86	50,301
591,06	48,274
591,25	49,176
591,44	49,893
591,63	47,740
591,83	50,140
592,02	48,365
592,21	48,748
592,41	46,996
592,60	50,104
592,79	47,913
592,98	46,924
593,18	49,460
593,37	48,831
593,56	49,866
593,76	49,124
593,95	48,046
594,14	49,605
594,33	51,353
594,53	49,079
594,72	50,004
594,91	51,781
595,10	50,238
595,30	50,336
595,49	50,004
595,68	52,781
595,88	50,303
596,07	51,983
596,26	50,025
596,45	50,758
596,65	47,383
596,84	49,587
597,03	48,706
597,22	52,216
597,42	53,007
597,61	49,157
597,80	49,322
597,99	51,108
598,19	51,699
598,38	51,144
598,57	51,064
598,76	53,055
598,95	52,206
599,15	51,090
599,34	49,305
599,53	50,362
599,72	51,304
599,92	50,971
600,11	50,050
600,30	51,625
600,49	53,210
600,69	51,349
600,88	53,066
601,07	51,953
601,26	49,772
601,45	52,286
601,65	51,056
601,84	52,232
602,03	51,137
602,22	51,339
602,42	54,019
602,61	49,184
602,80	52,517
602,99	51,782
603,18	49,764
603,38	54,039
603,57	49,761
603,76	50,554
603,95	51,286
604,14	51,033
604,34	52,281
604,53	51,208
604,72	52,241
604,91	51,530
605,10	51,392
605,29	52,912
605,49	50,800
605,68	52,337
605,87	52,178
606,06	52,217
606,25	49,487
606,45	52,165
606,64	50,805
606,83	52,687
607,02	50,924
607,21	50,800
607,40	53,148
607,60	49,302
607,79	49,010
607,98	50,255
608,17	49,820
608,36	49,323
608,55	50,476
608,75	49,437
608,94	47,858
609,13	44,743
609,32	43,258
609,51	45,739
609,70	44,941
609,89	45,870
610,09	44,113
610,28	47,071
610,47	45,622
610,66	44,949
610,85	42,141
611,04	45,158
611,23	44,376
611,43	45,766
611,62	44,445
611,81	44,845
612,00	45,034
612,19	43,879
612,38	45,511
612,57	46,299
612,77	45,649
612,96	45,389
613,15	45,487
613,34	48,594
613,53	47,608
613,72	49,049
613,91	47,734
614,10	47,669
614,29	50,546
614,49	48,922
614,68	47,839
614,87	50,637
615,06	53,388
615,25	48,469
615,44	50,611
615,63	51,257
615,82	50,706
616,01	50,982
616,21	50,010
616,40	51,478
616,59	54,264
616,78	52,231
616,97	53,119
617,16	52,866
617,35	53,966
617,54	53,042
617,73	52,914
617,92	51,728
618,11	54,227
618,31	51,375
618,50	53,483
618,69	52,397
618,88	52,607
619,07	52,172
619,26	51,523
619,45	50,972
619,64	52,842
619,83	52,156
620,02	51,458
620,21	53,961
620,40	52,790
620,59	52,249
620,78	52,976
620,97	52,828
621,17	53,780
621,36	52,507
621,55	52,365
621,74	52,854
621,93	53,496
622,12	52,857
622,31	52,715
622,50	53,455
622,69	54,179
622,88	53,883
623,07	53,854
623,26	54,705
623,45	55,986
623,64	52,170
623,83	51,260
624,02	55,637
624,21	54,719
624,40	53,798
624,59	52,447
624,78	55,463
624,97	55,028
625,16	53,577
625,35	49,976
625,54	52,892
625,73	53,463
625,92	54,727
626,12	55,552
626,31	55,378
626,50	55,779
626,69	56,107
626,88	53,952
627,07	56,460
627,26	54,656
627,45	54,611
627,64	53,556
627,83	55,276
628,02	52,988
628,21	52,608
628,40	52,177
628,59	56,164
628,78	52,971
628,97	53,567
629,16	53,404
629,35	51,673
629,54	56,387
629,73	54,670
629,92	52,771
630,10	54,163
630,29	55,612
630,48	54,690
630,67	52,878
630,86	54,848
631,05	55,335
631,24	56,204
631,43	53,078
631,62	54,517
631,81	53,972
632,00	53,952
632,19	52,193
632,38	54,724
632,57	55,401
632,76	55,604
632,95	55,607
633,14	57,553
633,33	55,805
633,52	55,163
633,71	56,811
633,90	56,065
634,09	54,371
634,28	56,250
634,47	54,753
634,66	56,700
634,85	57,590
635,04	56,517
635,22	56,629
635,41	55,367
635,60	58,307
635,79	56,465
635,98	52,509
636,17	56,684
636,36	55,896
636,55	55,654
636,74	55,089
636,93	56,645
637,12	56,873
637,31	56,403
637,50	55,466
637,69	57,827
637,87	56,810
638,06	56,932
638,25	54,224
638,44	56,372
638,63	54,576
638,82	57,137
639,01	54,797
639,20	56,847
639,39	58,590
639,58	56,394
639,77	58,229
639,95	55,894
640,14	55,386
640,33	56,194
640,52	56,155
640,71	59,714
640,90	56,626
641,09	56,581
641,28	55,332
641,47	56,529
641,66	56,880
641,84	55,546
642,03	56,483
642,22	55,932
642,41	59,406
642,60	57,028
642,79	55,264
642,98	57,828
643,17	55,305
643,35	55,578
643,54	57,379
643,73	58,383
643,92	58,368
644,11	57,251
644,30	55,781
644,49	56,408
644,67	56,231
644,86	56,568
645,05	57,557
645,24	55,164
645,43	56,761
645,62	57,312
645,81	56,274
645,99	58,764
646,18	57,744
646,37	55,550
646,56	56,543
646,75	59,522
646,94	59,340
647,13	56,875
647,31	55,303
647,50	56,510
647,69	58,374
647,88	56,809
648,07	56,823
648,26	59,206
648,44	56,350
648,63	55,081
648,82	56,155
649,01	59,702
649,20	56,283
649,38	57,474
649,57	57,411
649,76	55,563
649,95	56,864
650,14	54,329
650,33	55,799
650,51	55,843
650,70	57,266
650,89	54,744
651,08	55,098
651,27	56,263
651,45	57,041
651,64	56,446
651,83	58,329
652,02	57,608
652,21	55,782
652,39	57,810
652,58	58,883
652,77	57,351
652,96	57,643
653,15	57,132
653,33	57,378
653,52	56,143
653,71	58,628
653,90	56,394
654,09	56,869
654,27	55,780
654,46	58,913
654,65	57,788
654,84	58,482
655,02	57,408
655,21	57,583
655,40	59,693
655,59	56,499
655,77	58,271
655,96	57,740
656,15	56,902
656,34	57,870
656,53	57,845
656,71	57,187
656,90	57,488
657,09	59,290
657,28	58,496
657,46	55,450
657,65	57,224
657,84	55,615
658,03	58,695
658,21	59,302
658,40	56,732
658,59	57,853
658,78	58,886
658,96	57,108
659,15	57,731
659,34	57,400
659,52	58,362
659,71	58,313
659,90	57,329
660,09	57,191
660,27	55,596
660,46	59,615
660,65	56,908
660,84	56,864
661,02	58,580
661,21	57,821
661,40	58,261
661,58	55,280
661,77	57,547
661,96	56,000
662,15	56,599
662,33	57,085
662,52	55,235
662,71	57,191
662,89	55,919
663,08	56,685
663,27	57,876
663,45	55,863
663,64	56,183
663,83	55,856
664,02	57,406
664,20	56,967
664,39	57,769
664,58	56,623
664,76	57,522
664,95	58,189
665,14	57,510
665,32	56,437
665,51	58,005
665,70	59,512
665,88	58,293
666,07	57,851
666,26	59,485
666,44	59,506
666,63	57,627
666,82	58,780
667,00	59,207
667,19	57,269
667,38	56,192
667,56	58,729
667,75	59,641
667,94	59,084
668,12	57,046
668,31	57,104
668,50	58,658
668,68	60,200
668,87	58,123
669,06	57,553
669,24	58,426
669,43	56,460
669,62	53,675
669,80	54,627
669,99	57,284
670,18	57,671
670,36	57,543
670,55	57,672
670,74	56,364
670,92	56,277
671,11	56,900
671,29	55,958
671,48	58,038
671,67	58,582
671,85	56,730
672,04	56,194
672,23	56,855
672,41	56,068
672,60	56,802
672,78	55,772
672,97	57,964
673,16	56,845
673,34	57,261
673,53	56,462
673,71	57,540
673,90	58,880
674,09	58,064
674,27	56,121
674,46	55,595
674,64	58,776
674,83	56,557
675,02	54,637
675,20	56,460
675,39	56,841
675,57	58,139
675,76	57,361
675,95	58,167
676,13	59,421
676,32	58,241
676,50	58,379
676,69	55,050
676,88	58,892
677,06	56,272
677,25	56,677
677,43	58,766
677,62	58,503
677,80	57,181
677,99	56,194
678,18	58,164
678,36	57,733
678,55	56,060
678,73	55,985
678,92	59,452
679,10	55,910
679,29	55,817
679,48	57,758
679,66	57,258
679,85	56,038
680,03	57,553
680,22	57,515
680,40	54,977
680,59	56,920
680,77	56,847
680,96	57,697
681,15	55,527
681,33	58,382
681,52	57,529
681,70	58,259
681,89	59,180
682,07	58,171
682,26	56,845
682,44	57,141
682,63	58,396
682,81	57,504
683,00	56,505
683,18	55,375
683,37	59,050
683,55	57,813
683,74	58,430
683,92	62,973
684,11	58,514
684,29	57,528
684,48	55,048
684,67	57,413
684,85	58,643
685,04	57,515
685,22	57,710
685,41	56,947
685,59	57,809
685,78	55,409
685,96	57,186
686,15	56,635
686,33	56,824
686,52	56,614
686,70	57,313
686,89	57,458
687,07	56,800
687,26	59,066
687,44	57,003
687,62	57,546
687,81	59,954
687,99	58,176
688,18	57,616
688,36	59,650
688,55	59,749
688,73	57,600
688,92	54,805
689,10	58,355
689,29	59,656
689,47	59,053
689,66	58,346
689,84	57,529
690,03	56,934
690,21	57,717
690,40	58,915
690,58	56,126
690,76	58,282
690,95	58,230
691,13	57,309
691,32	58,050
691,50	58,413
691,69	58,211
691,87	56,168
692,06	59,218
692,24	56,857
692,43	56,333
692,61	56,188
692,79	56,756
692,98	55,597
693,16	59,964
693,35	55,159
693,53	58,073
693,72	60,231
693,90	59,588
694,08	56,829
694,27	56,386
694,45	60,704
694,64	59,701
694,82	57,098
695,01	56,331
695,19	58,363
695,37	58,333
695,56	57,130
695,74	57,575
695,93	58,632
696,11	56,596
696,29	57,922
696,48	57,975
696,66	59,454
696,85	57,572
697,03	56,337
697,21	59,439
697,40	57,385
697,58	56,720
697,77	56,415
697,95	58,071
698,13	60,084
698,32	57,427
698,50	57,036
698,69	56,210
698,87	57,692
699,05	58,064
699,24	57,017
699,42	58,534
699,60	56,422
699,79	57,450
699,97	57,273
700,16	55,561
700,34	60,537
700,52	57,278
700,71	56,477
700,89	59,436
701,07	59,649
701,26	58,922
701,44	57,481
701,63	56,281
701,81	57,886
701,99	59,444
702,18	57,279
702,36	56,653
702,54	56,828
702,73	58,787
702,91	57,905
703,09	57,284
703,28	55,106
703,46	59,213
703,64	56,628
703,83	58,087
704,01	55,958
704,19	58,134
704,38	56,760
704,56	56,046
704,74	58,176
704,93	57,840
705,11	56,815
705,29	58,052
705,48	60,319
705,66	57,892
705,84	57,376
706,03	55,655
706,21	57,186
706,39	57,345
706,58	55,454
706,76	55,973
706,94	58,374
707,12	57,151
707,31	56,507
707,49	55,742
707,67	57,406
707,86	59,376
708,04	59,059
708,22	56,797
708,41	55,967
708,59	57,615
708,77	55,482
708,95	57,895
709,14	60,518
709,32	57,624
709,50	56,046
709,69	56,719
709,87	57,448
710,05	56,585
710,23	56,271
710,42	56,072
710,60	58,272
710,78	57,940
710,97	57,169
711,15	54,994
711,33	59,880
711,51	55,727
711,70	54,998
711,88	57,191
712,06	58,214
712,24	58,100
712,43	57,731
712,61	55,440
712,79	57,968
712,97	57,616
713,16	57,783
713,34	56,393
713,52	55,813
713,70	58,374
713,89	57,017
714,07	57,852
714,25	55,814
714,43	60,083
714,62	56,447
714,80	56,615
714,98	54,373
715,16	58,282
715,35	55,334
715,53	55,988
715,71	59,212
715,89	61,887
716,07	56,970
716,26	61,381
716,44	58,018
716,62	57,358
716,80	57,075
716,99	59,005
717,17	58,542
717,35	58,516
717,53	56,886
717,71	55,313
717,90	57,540
718,08	58,813
718,26	55,761
718,44	56,012
718,62	60,295
718,81	57,250
718,99	56,806
719,17	56,875
719,35	57,851
719,53	56,839
719,72	56,580
719,90	57,086
720,08	57,473
720,26	58,709
720,44	56,165
720,62	57,817
720,81	58,816
720,99	60,223
721,17	57,447
721,35	57,874
721,53	58,435
721,72	57,584
721,90	57,242
722,08	55,916
722,26	61,465
722,44	58,377
722,62	55,935
722,81	58,314
722,99	57,263
723,17	57,452
723,35	58,216
723,53	57,800
723,71	59,024
723,89	59,586
724,08	55,422
724,26	58,791
724,44	56,647
724,62	57,809
724,80	57,178
724,98	59,180
725,16	59,042
725,35	56,641
725,53	55,961
725,71	56,716
725,89	57,203
726,07	59,448
726,25	60,777
726,43	56,948
726,61	57,760
726,80	57,901
726,98	57,393
727,16	58,070
727,34	57,813
727,52	55,944
727,70	54,945
727,88	55,128
728,06	56,580
728,25	55,519
728,43	57,817
728,61	56,956
728,79	54,757
728,97	57,915
729,15	56,473
729,33	60,701
729,51	59,102
729,69	60,015
729,87	58,718
730,06	55,929
730,24	58,735
730,42	60,070
730,60	56,917
730,78	56,768
730,96	59,283
731,14	56,274
731,32	56,746
731,50	57,749
731,68	57,264
731,86	56,951
732,04	57,173
732,22	54,999
732,41	60,362
732,59	58,435
732,77	58,350
732,95	60,408
733,13	58,090
733,31	57,168
733,49	55,340
733,67	57,314
733,85	57,968
734,03	58,114
734,21	56,056
734,39	57,663
734,57	59,782
734,75	58,033
734,93	56,596
735,11	57,753
735,29	57,153
735,47	59,503
735,65	57,153
735,84	57,619
736,02	56,451
736,20	58,794
736,38	56,864
736,56	55,841
736,74	56,086
736,92	58,883
737,10	57,720
737,28	57,160
737,46	56,023
737,64	56,309
737,82	57,383
738,00	58,317
738,18	59,562
738,36	57,694
738,54	57,951
738,72	55,333
738,90	56,297
739,08	57,793
739,26	55,562
739,44	57,145
739,62	57,529
739,80	57,689
739,98	56,802
740,16	59,845
740,34	57,634
740,52	58,370
740,70	56,944
740,88	57,212
741,06	57,681
741,24	59,050
741,42	59,754
741,60	56,618
741,78	58,406
741,96	59,200
742,14	57,047
742,32	56,436
742,50	60,724
742,68	59,313
742,86	56,665
743,04	59,825
743,21	56,939
743,39	60,305
743,57	56,143
743,75	57,778
743,93	56,186
744,11	55,965
744,29	56,703
744,47	59,437
744,65	57,174
744,83	57,001
745,01	56,931
745,19	58,265
745,37	60,960
745,55	58,917
745,73	58,755
745,91	54,968
746,09	58,279
746,27	56,186
746,45	54,525
746,62	57,261
746,80	57,256
746,98	58,487
747,16	57,668
747,34	58,093
747,52	57,635
747,70	59,086
747,88	56,799
748,06	56,429
748,24	58,584
748,42	56,678
748,60	56,749
748,78	56,347
748,95	60,562
749,13	60,516
749,31	57,275
749,49	58,773
749,67	59,059
749,85	59,773
750,03	59,183
750,21	57,148
750,39	58,325
750,57	59,317
750,74	57,999
750,92	57,640
751,10	58,640
751,28	57,618
751,46	55,899
751,64	58,772
751,82	60,355
752,00	58,445
752,17	57,958
752,35	56,599
752,53	58,276
752,71	57,908
752,89	58,011
753,07	56,489
753,25	58,703
753,43	54,860
753,60	58,953
753,78	56,489
753,96	59,412
754,14	57,071
754,32	59,957
754,50	58,940
754,68	58,903
754,85	57,606
755,03	57,833
755,21	58,854
755,39	60,742
755,57	57,391
755,75	56,186
755,92	56,834
756,10	57,431
756,28	58,490
756,46	56,217
756,64	57,725
756,82	58,144
756,99	59,080
757,17	57,866
757,35	56,605
757,53	59,504
757,71	57,468
757,89	56,141
758,06	58,086
758,24	57,561
758,42	57,627
758,60	57,246
758,78	56,605
758,95	58,999
759,13	57,623
759,31	57,099
759,49	56,581
759,67	57,726
759,84	58,150
760,02	57,129
760,20	58,274
760,38	58,025
760,56	56,225
760,73	57,704
760,91	60,176
761,09	58,768
761,27	57,820
761,45	58,091
761,62	55,247
761,80	56,107
761,98	57,657
762,16	56,715
762,33	55,798
762,51	60,178
762,69	58,244
762,87	57,372
763,05	56,928
763,22	55,290
763,40	57,082
763,58	55,571
763,76	58,292
763,93	57,336
764,11	57,875
764,29	58,064
764,47	57,462
764,64	57,810
764,82	60,979
765,00	57,646
765,18	56,915
765,35	58,522
765,53	56,647
765,71	58,496
765,89	56,602
766,06	56,669
766,24	56,402
766,42	57,258
766,60	53,338
766,77	57,695
766,95	59,002
767,13	56,696
767,30	58,428
767,48	60,126
767,66	57,293
767,84	56,536
768,01	58,225
768,19	56,953
768,37	57,402
768,54	56,942
768,72	58,611
768,90	59,799
769,08	57,884
769,25	58,109
769,43	56,415
769,61	55,326
769,78	59,251
769,96	57,307
770,14	57,630
770,31	58,518
770,49	59,197
770,67	59,629
770,85	57,239
771,02	57,001
771,20	57,547
771,38	59,846
771,55	56,032
771,73	57,295
771,91	59,160
772,08	60,913
772,26	58,742
772,44	58,333
772,61	59,115
772,79	57,561
772,97	58,187
773,14	54,665
773,32	59,623
773,50	56,575
773,67	55,000
773,85	59,482
774,03	61,314
774,20	59,974
774,38	58,599
774,56	59,516
774,73	59,126
774,91	57,833
775,09	57,202
775,26	58,738
775,44	57,318
775,61	59,700
775,79	57,234
775,97	58,397
776,14	56,881
776,32	56,807
776,50	59,236
776,67	59,768
776,85	57,553
777,03	56,847
777,20	61,488
777,38	58,261
777,55	61,019
777,73	56,264
777,91	57,484
778,08	57,941
778,26	58,288
778,43	58,125
778,61	56,503
778,79	57,381
778,96	55,915
779,14	57,723
779,32	58,714
779,49	57,773
779,67	59,683
779,84	59,189
780,02	59,240
780,20	55,346
780,37	61,117
780,55	52,018
780,72	59,825
780,90	60,349
781,07	56,454
781,25	57,453
781,43	58,275
781,60	56,478
781,78	58,445
781,95	60,554
782,13	57,030
782,30	58,968
782,48	57,417
782,66	57,107
782,83	56,461
783,01	63,585
783,18	58,961
783,36	58,981
783,53	58,509
783,71	55,195
783,89	55,415
784,06	57,920
784,24	58,858
784,41	60,558
784,59	57,725
784,76	60,246
784,94	58,500
785,11	58,161
785,29	59,253
785,46	59,543
785,64	57,660
785,82	61,797
785,99	61,012
786,17	57,377
786,34	59,479
786,52	59,186
786,69	61,646
786,87	55,864
787,04	58,768
787,22	57,848
787,39	60,960
787,57	60,039
787,74	60,845
787,92	61,469
788,09	61,588
788,27	59,302
788,44	57,962
788,62	59,066
788,79	58,112
788,97	58,218
789,14	58,701
789,32	60,428
789,49	57,738
789,67	57,618
789,84	57,030
790,02	61,672
790,19	57,040
790,37	60,028
790,54	61,240
790,72	64,241
790,89	62,281
791,07	59,585
791,24	55,481
791,42	59,443
791,59	61,676
791,77	56,497
791,94	57,887
792,12	57,449
792,29	62,191
792,47	61,195
792,64	57,210
792,81	59,579
792,99	59,605
793,16	61,691
793,34	61,767
793,51	57,946
793,69	61,022
793,86	58,898
794,04	56,379
794,21	63,293
794,39	58,196
794,56	57,673
794,73	60,688
794,91	59,224
795,08	59,751
795,26	58,724
795,43	58,522
795,61	61,620
795,78	59,018
795,95	61,470
796,13	60,562
796,30	59,689
796,48	57,268
796,65	58,504
796,83	60,732
797,00	64,392
797,17	58,673
797,35	59,298
797,52	61,185
797,70	64,571
797,87	61,187
798,04	54,579
798,22	59,894
798,39	59,611
798,57	59,885
798,74	59,615
798,91	58,954
799,09	57,794
799,26	63,247
799,44	60,431
799,61	58,197
799,78	58,405
799,96	62,956
800,13	61,466
800,31	62,559
800,48	62,356
800,65	62,422
800,83	57,822
801,00	61,027
801,17	59,765
801,35	61,992
801,52	57,318
801,70	60,280
801,87	59,973
802,04	60,608
802,22	57,139
802,39	59,807
802,56	67,307
802,74	60,547
802,91	59,834
803,08	59,352
803,26	59,808
803,43	64,165
803,61	59,933
803,78	57,901
803,95	60,746
804,13	62,159
804,30	58,615
804,47	64,218
804,65	61,825
804,82	59,298
804,99	62,438
805,17	58,033
805,34	67,687
805,51	60,885
805,69	58,820
805,86	62,933
806,03	64,356
806,21	63,777
806,38	58,806
806,55	59,756
806,72	63,370
806,90	59,114
807,07	63,928
807,24	59,053
807,42	59,554
807,59	62,165
807,76	59,197
807,94	59,926
808,11	61,325
808,28	67,774
808,45	62,857
808,63	55,535
808,80	62,515
808,97	59,013
809,15	60,037
809,32	61,180
809,49	58,056
809,67	60,670
809,84	61,185
810,01	63,910
810,18	68,021
810,36	64,967
810,53	66,460
810,70	60,025
810,87	61,786
811,05	60,077
811,22	62,062
811,39	60,272
811,57	61,804
811,74	64,973
811,91	59,725
812,08	59,117
812,26	61,561
812,43	60,506
812,60	59,118
812,77	61,953
812,95	65,998
813,12	65,674
813,29	56,249
813,46	61,246
813,64	61,948
813,81	63,337
813,98	61,321
814,15	63,351
814,32	67,404
814,50	66,253
814,67	64,912
814,84	61,746
815,01	59,755
815,19	55,941
815,36	58,229
815,53	63,791
815,70	58,589
815,87	67,040
816,05	53,897
816,22	60,332
816,39	65,608
816,56	66,985
816,74	63,769
816,91	59,432
817,08	66,425
817,25	67,387
817,42	60,339
817,60	62,953
817,77	60,690
817,94	61,965
818,11	60,177
818,28	64,743
818,45	63,818
818,63	63,614
818,80	60,956
818,97	61,545
819,14	69,208
819,31	69,195
819,49	65,796
819,66	59,578
819,83	61,285
820,00	65,048
820,17	59,667
820,34	66,002
820,52	67,023
820,69	65,038
820,86	62,719
821,03	62,027
821,20	65,791
821,37	68,358
821,55	58,299
821,72	60,332
821,89	68,069
822,06	66,167
822,23	56,053
822,40	60,931
822,57	66,236
822,75	68,895
822,92	60,399
823,09	62,430
823,26	65,456
823,43	66,850
823,60	57,973
823,77	64,319
823,94	66,935
824,12	65,898
824,29	59,026
824,46	58,437
824,63	68,197
824,80	68,395
824,97	64,805
825,14	59,947
825,31	68,428
825,49	59,040
825,66	62,627
825,83	60,493
826,00	66,488
826,17	73,857
826,34	64,159
826,51	60,425
826,68	60,699
826,85	66,847
827,02	60,522
827,20	60,738
827,37	62,589
827,54	67,193
827,71	62,503
827,88	65,458
828,05	62,922
828,22	62,560
828,39	66,509
828,56	65,211
828,73	61,614
828,90	66,821
829,07	58,763
829,25	65,763
829,42	69,585
829,59	66,007
829,76	58,776
829,93	58,221
830,10	64,987
830,27	68,226
830,44	64,828
830,61	60,179
830,78	69,832
830,95	59,031
831,12	59,807
831,29	63,658
831,46	67,282
831,63	61,928
831,80	60,483
831,97	57,533
832,14	71,868
832,31	76,421
832,48	57,926
832,65	68,943
832,83	67,131
833,00	63,120
833,17	62,889
833,34	67,116
833,51	65,435
833,68	75,126
833,85	64,682
834,02	65,933
834,19	64,253
834,36	72,262
834,53	55,623
834,70	61,282
834,87	71,555
835,04	67,276
835,21	66,503
835,38	58,163
835,55	68,835
835,72	79,287
835,89	58,755
836,06	67,170
836,23	78,987
836,40	57,200
836,57	60,643
836,74	64,707
836,91	64,608
837,08	77,648
837,25	63,613
837,42	52,760
837,59	67,695
837,76	66,050
837,93	63,135
838,09	56,777
838,26	72,525
838,43	82,247
838,60	71,108
838,77	54,379
838,94	76,476
839,11	67,014
839,28	65,099
839,45	57,097
839,62	70,593
839,79	61,097
839,96	63,605
840,13	64,287
840,30	59,031
840,47	62,820
840,64	66,642
840,81	65,697
840,98	69,071
841,15	74,542
841,32	60,110
841,48	70,335
841,65	67,861
841,82	64,598
841,99	57,187
842,16	59,034
842,33	67,248
842,50	76,016
842,67	64,507
842,84	56,514
843,01	68,471
843,18	62,123
843,35	67,350
843,52	59,421
843,68	64,025
843,85	63,385
844,02	65,146
844,19	58,453
844,36	69,800
844,53	82,950
844,70	68,734
844,87	80,676
845,04	73,153
845,21	60,406
845,37	67,592
845,54	59,485
845,71	60,489
845,88	80,045
846,05	57,214
846,22	67,667
846,39	69,664
846,56	75,055
846,72	54,539
846,89	67,240
847,06	77,466
847,23	72,256
847,40	63,712
847,57	53,667
847,74	65,584
847,90	76,755
848,07	67,176
848,24	70,736
848,41	71,171
848,58	81,745
848,75	67,289
848,92	60,823
849,08	69,245
849,25	66,786
849,42	59,260
849,59	67,111
849,76	67,271
849,93	73,978
850,09	73,726
850,26	50,423
850,43	65,287
850,60	62,918
850,77	63,390
850,94	64,783
851,10	80,467
851,27	66,346
851,44	68,253
851,61	62,644
851,78	87,695
851,95	79,090
852,11	63,129
852,28	63,104
852,45	70,883
852,62	74,487
852,79	68,127
852,95	54,082
853,12	61,125
853,29	63,195
853,46	60,577
853,63	62,680
853,79	59,057
853,96	66,845
854,13	76,022
854,30	57,194
854,46	90,388
854,63	72,992
854,80	72,340
854,97	75,844
855,14	73,149
855,30	76,241
855,47	63,934
855,64	79,965
855,81	68,068
855,97	76,493
856,14	74,776
856,31	62,703
856,48	86,689
856,65	86,512
856,81	60,154
856,98	66,741
857,15	51,642
857,32	66,421
857,48	65,575
857,65	74,162
857,82	87,155
857,99	81,183
858,15	56,934
858,32	65,370
858,49	72,472
858,65	89,147
858,82	60,991
858,99	71,767
859,16	90,152
859,32	98,718
859,49	67,957
859,66	65,399
859,83	64,180
859,99	64,416
860,16	72,189
860,33	54,660
860,49	79,371
860,66	75,273
860,83	67,253
861,00	62,461
861,16	70,841
861,33	68,518
861,50	59,679
861,66	72,627
861,83	94,609
862,00	65,120
862,16	74,850
862,33	68,371
862,50	113,643
862,67	81,608
862,83	61,713
863,00	69,490
863,17	101,441
863,33	85,916
863,50	49,537
863,67	59,671
863,83	64,289
864,00	94,533
864,17	53,709
864,33	70,530
864,50	88,907
864,67	77,329
864,83	55,449
865,00	57,302
865,17	56,641
865,33	93,940
865,50	62,422
865,67	58,835
865,83	78,741
866,00	118,292
866,17	78,256
866,33	81,636
866,50	101,220
866,66	65,195
866,83	84,839
867,00	83,156
867,16	87,798
867,33	117,136
867,50	64,225
867,66	77,168
867,83	93,109
868,00	96,847
868,16	58,436
868,33	62,213
868,49	78,371
868,66	104,082
868,83	61,699
868,99	83,484
869,16	99,101
869,32	105,132
869,49	71,954
869,66	44,461
869,82	112,007
869,99	93,142
870,15	51,272
870,32	92,789
870,49	83,478
870,65	134,214
870,82	90,424
870,98	75,273
871,15	117,831
871,32	79,940
871,48	56,646
871,65	53,003
871,81	62,708
871,98	52,144
872,15	67,043
872,31	69,733
872,48	128,249
872,64	102,716
872,81	59,277
872,97	82,287
873,14	102,268
873,31	121,205
873,47	90,772
873,64	91,709
873,80	113,300
873,97	124,589
874,13	46,091
874,30	48,253
874,46	130,094
874,63	88,432
874,80	70,528
874,96	51,787
875,13	117,267
875,29	71,593
875,46	97,019
875,62	69,567
875,79	107,876
875,95	78,403
876,12	93,666
876,28	23,662
876,45	117,668
876,61	75,202
876,78	73,113
876,94	74,247
877,11	100,128
877,27	106,261
877,44	104,799
877,60	74,637
877,77	109,549
877,94	113,047
878,10	60,268
878,27	77,498
878,43	129,101
878,60	55,678
878,76	68,264
878,93	40,879
879,09	135,765
879,26	122,730
879,42	77,111
879,58	105,235
879,75	130,943
879,91	138,373
880,08	44,001
880,24	92,915
880,41	92,652
880,57	91,767
880,74	45,528
880,90	83,022
881,07	95,719
881,23	150,770
881,40	96,434
881,56	58,717
881,73	116,788
881,89	132,138
882,06	53,132
882,22	187,545
882,38	196,149
882,55	138,680
882,71	99,095
882,88	109,087
883,04	203,494
883,21	195,254
883,37	109,821
883,54	88,526
883,70	257,291
883,86	103,583
884,03	75,327
884,19	37,962
884,36	-1,272
884,52	245,180
884,69	88,221
884,85	89,359
885,01	218,792
885,18	140,545
885,34	50,391
885,51	-4,588
885,67	127,672
>>>>> Data<<<<< Espectral Procesado Extremo
