Fichero De Datos De SpectraSuite
++++++++++++++++++++++++++++++++++++
Fecha: Wed Apr 22 11:41:38 CEST 2009
Usuario: evoflor
Presente Oscuro Del Espectro: Sí
La Referencia de Presente Del Espectro De: Sí
Muestreados de los componentes de Número de espectros: 1
Espectrómetros: USB4F02353
Tiempo de integración (usec): 500000 (USB4F02353)
Promedio de Espectros Hechos un: 5 (USB4F02353)
El Alisar Del Furgón: 0 (USB4F02353)
Párrafo de de Corregir del la del del de Eléctrica del obscuridad: Sí (USB4F02353)
Estrobo/Lámpara Permitido: No (USB4F02353)
Correct for Detector Non-linearity: No (USB4F02353)
Párrafo de de Corregir del la del del de Externa del luz: No (USB4F02353)
Procesado del espectro de Número de pixeles en: 3648
>>>>> Comienza Data<<<<< Espectral Procesado Del EL
177,79	198,106
178,00	198,106
178,22	198,106
178,44	1302,198
178,66	-290,451
178,88	221,824
179,09	-165,957
179,31	138,261
179,53	496,904
179,75	52,410
179,96	840,517
180,18	-438,462
180,40	367,834
180,62	397,082
180,83	-281,405
181,05	-1178,049
181,27	-84900,000
181,49	-98,478
181,70	63,462
181,92	673,096
182,14	480,723
182,36	130,210
182,58	123,000
182,79	1126,339
183,01	59,380
183,23	156,677
183,45	-297,231
183,66	-13,274
183,88	308,824
184,10	-2280,000
184,32	-126,238
184,53	160,405
184,75	-208,229
184,97	1,332
185,18	-212,030
185,40	-468,750
185,62	64,592
185,84	102,838
186,05	9,062
186,27	-161,282
186,49	3507,692
186,71	-72,496
186,92	111,366
187,14	-184,582
187,36	127,361
187,58	73,476
187,79	-107,143
188,01	351,005
188,23	-128,693
188,45	-25,080
188,66	145,982
188,88	-1952,727
189,10	-1488,000
189,31	11,775
189,53	-33,942
189,75	295,227
189,97	70,385
190,18	43,777
190,40	319,412
190,62	151,134
190,83	-214,202
191,05	132,114
191,27	250,286
191,49	544,307
191,70	41,827
191,92	43,220
192,14	-41,829
192,35	511,671
192,57	3917,143
192,79	-230,621
193,01	96,044
193,22	92,421
193,44	-69,625
193,66	133,211
193,87	120,128
194,09	26,115
194,31	189,941
194,53	417,483
194,74	35,323
194,96	97,059
195,18	84,693
195,39	-281,003
195,61	-66,330
195,83	-319,565
196,04	118,242
196,26	-168,844
196,48	2,993
196,70	295,825
196,91	-7,925
197,13	85,063
197,35	-51,096
197,56	616,718
197,78	915,672
198,00	612,587
198,21	385,922
198,43	-650,581
198,65	76,886
198,86	111,151
199,08	-173,115
199,30	173,684
199,51	-376,221
199,73	181,455
199,95	263,614
200,16	371,538
200,38	332,030
200,60	171,184
200,81	152,891
201,03	127,989
201,25	-1245,000
201,46	195,220
201,68	60,509
201,90	2379,545
202,11	-193,511
202,33	116,876
202,55	262,500
202,76	-60,069
202,98	556,098
203,20	-421,154
203,41	-191,053
203,63	111,123
203,85	-51600,000
204,06	-130,858
204,28	33,976
204,50	152,195
204,71	269,258
204,93	139,200
205,15	6,325
205,36	-184,704
205,58	188,868
205,80	-121,288
206,01	86,587
206,23	45,907
206,45	187,536
206,66	61,779
206,88	-61,008
207,10	270,682
207,31	319,868
207,53	116,571
207,75	-21,172
207,96	969,403
208,18	-170,990
208,39	83,945
208,61	5202,857
208,83	-273,573
209,04	255,032
209,26	-221,198
209,48	286,879
209,69	154,355
209,91	548,311
210,13	80,949
210,34	100,969
210,56	180,411
210,77	-1816,535
210,99	114,697
211,21	4147,059
211,42	-80,584
211,64	-8,526
211,86	230,278
212,07	269,653
212,29	179,779
212,50	106,689
212,72	312,692
212,94	131,086
213,15	103,630
213,37	130,538
213,58	-92,461
213,80	632,143
214,02	8700,000
214,23	243,613
214,45	231,148
214,67	-376,829
214,88	-7,047
215,10	-75,000
215,31	-131,004
215,53	-212,045
215,75	222,783
215,96	1416,149
216,18	-654,930
216,39	248,261
216,61	368,122
216,83	595,982
217,04	326,966
217,26	-24,194
217,47	159,360
217,69	220,578
217,91	24,742
218,12	-20100,000
218,34	151,032
218,55	277,719
218,77	190,229
218,99	111,222
219,20	-97,861
219,42	299,543
219,63	101,066
219,85	-37,864
220,06	-348,462
220,28	236,098
220,50	27,686
220,71	127,224
220,93	2162,264
221,14	-1164,000
221,36	54,493
221,58	-106,909
221,79	103,148
222,01	1321,552
222,22	931,579
222,44	488,764
222,65	127,646
222,87	77,622
223,09	75,414
223,30	34,666
223,52	143,415
223,73	154,274
223,95	-24,930
224,16	189,897
224,38	277,962
224,60	71,617
224,81	42,459
225,03	38,987
225,24	63,690
225,46	-27,907
225,67	-10,264
225,89	64,005
226,10	280,120
226,32	758,400
226,54	28,945
226,75	47,821
226,97	110,482
227,18	160,625
227,40	36,810
227,61	57,125
227,83	7,712
228,04	97,344
228,26	25,607
228,47	61,347
228,69	126,602
228,91	134,359
229,12	108,034
229,34	33,650
229,55	68,376
229,77	6,237
229,98	2,105
230,20	9,393
230,41	-13,501
230,63	129,725
230,84	27,900
231,06	-8,705
231,27	33,592
231,49	30,481
231,71	20,476
231,92	-14,130
232,14	-0,912
232,35	53,300
232,57	36,808
232,78	13,835
233,00	33,708
233,21	51,096
233,43	-2,376
233,64	13,553
233,86	24,042
234,07	53,223
234,29	26,584
234,50	20,410
234,72	56,562
234,93	7,668
235,15	14,375
235,36	19,761
235,58	30,405
235,79	21,653
236,01	0,585
236,22	9,160
236,44	33,622
236,65	30,224
236,87	15,380
237,08	13,335
237,30	-9,146
237,51	31,219
237,73	-1,184
237,94	5,920
238,16	18,495
238,37	7,616
238,59	7,842
238,80	17,009
239,02	7,297
239,23	13,303
239,45	-15,102
239,66	12,060
239,88	21,507
240,09	26,191
240,31	1,637
240,52	7,312
240,74	0,252
240,95	8,927
241,17	3,749
241,38	1,479
241,60	2,404
241,81	29,892
242,03	-0,340
242,24	12,669
242,46	17,052
242,67	1,675
242,89	10,363
243,10	9,459
243,32	13,984
243,53	10,678
243,75	5,462
243,96	9,387
244,18	13,635
244,39	15,213
244,60	7,517
244,82	3,165
245,03	22,642
245,25	4,927
245,46	20,901
245,68	3,570
245,89	17,668
246,11	6,000
246,32	5,920
246,54	0,658
246,75	7,885
246,97	3,996
247,18	15,024
247,39	4,064
247,61	6,663
247,82	5,368
248,04	5,211
248,25	3,401
248,47	12,232
248,68	8,813
248,90	-2,238
249,11	6,776
249,33	15,367
249,54	4,985
249,75	7,496
249,97	-0,991
250,18	13,904
250,40	11,156
250,61	-5,921
250,83	-0,387
251,04	-0,500
251,25	12,778
251,47	-0,034
251,68	8,140
251,90	7,383
252,11	5,548
252,33	1,798
252,54	0,811
252,76	5,177
252,97	4,159
253,18	2,592
253,40	4,407
253,61	-2,407
253,83	8,322
254,04	10,585
254,25	5,488
254,47	0,972
254,68	2,045
254,90	5,119
255,11	7,750
255,33	6,956
255,54	4,052
255,75	-0,298
255,97	4,577
256,18	3,758
256,40	4,848
256,61	3,577
256,82	-0,306
257,04	5,088
257,25	-2,944
257,47	7,668
257,68	1,991
257,89	10,002
258,11	5,093
258,32	1,603
258,54	-0,112
258,75	9,113
258,96	11,496
259,18	5,306
259,39	1,045
259,61	7,363
259,82	0,806
260,03	5,245
260,25	5,801
260,46	3,423
260,68	3,308
260,89	1,533
261,10	4,143
261,32	2,272
261,53	-0,885
261,75	3,090
261,96	-1,067
262,17	11,547
262,39	9,034
262,60	3,960
262,81	-3,309
263,03	8,576
263,24	5,292
263,46	-0,724
263,67	4,833
263,88	5,245
264,10	4,829
264,31	-2,102
264,52	6,107
264,74	8,528
264,95	3,161
265,17	6,256
265,38	2,956
265,59	7,183
265,81	5,194
266,02	-1,301
266,23	4,079
266,45	7,065
266,66	7,977
266,87	7,441
267,09	4,588
267,30	3,965
267,52	7,663
267,73	3,415
267,94	7,113
268,16	4,602
268,37	3,309
268,58	3,500
268,80	2,276
269,01	3,532
269,22	3,012
269,44	4,921
269,65	3,346
269,86	2,408
270,08	7,743
270,29	2,814
270,50	3,095
270,72	7,834
270,93	3,453
271,14	1,510
271,36	1,260
271,57	4,877
271,78	4,351
272,00	7,069
272,21	4,811
272,42	7,892
272,64	6,703
272,85	-0,941
273,06	2,470
273,28	8,649
273,49	7,475
273,70	4,488
273,92	2,859
274,13	5,513
274,34	0,488
274,56	4,545
274,77	1,472
274,98	4,579
275,20	3,221
275,41	4,345
275,62	3,661
275,84	2,959
276,05	9,165
276,26	1,669
276,47	-1,261
276,69	5,738
276,90	6,071
277,11	3,212
277,33	5,562
277,54	4,815
277,75	5,611
277,97	1,281
278,18	0,402
278,39	4,474
278,61	3,434
278,82	3,660
279,03	3,102
279,24	5,487
279,46	4,067
279,67	6,573
279,88	4,486
280,10	3,843
280,31	-0,086
280,52	3,329
280,73	0,604
280,95	6,345
281,16	5,284
281,37	1,671
281,59	8,027
281,80	10,786
282,01	3,461
282,22	1,350
282,44	1,245
282,65	7,671
282,86	5,773
283,08	5,243
283,29	4,569
283,50	4,531
283,71	5,389
283,93	8,046
284,14	6,854
284,35	1,114
284,56	4,676
284,78	2,120
284,99	5,955
285,20	8,473
285,42	5,723
285,63	1,747
285,84	-0,759
286,05	2,079
286,27	4,101
286,48	1,973
286,69	0,039
286,90	2,828
287,12	3,794
287,33	-0,924
287,54	3,162
287,75	7,537
287,97	2,350
288,18	2,515
288,39	1,138
288,60	5,793
288,82	2,462
289,03	2,063
289,24	3,809
289,45	5,391
289,67	1,955
289,88	2,111
290,09	5,594
290,30	5,616
290,52	3,584
290,73	0,251
290,94	0,614
291,15	2,810
291,37	1,893
291,58	2,746
291,79	3,292
292,00	5,258
292,21	5,326
292,43	3,819
292,64	0,421
292,85	3,705
293,06	7,600
293,28	1,192
293,49	-0,730
293,70	5,395
293,91	2,671
294,12	2,230
294,34	2,334
294,55	3,724
294,76	3,273
294,97	5,743
295,19	-0,018
295,40	5,406
295,61	4,155
295,82	2,045
296,03	4,983
296,25	3,888
296,46	1,236
296,67	-0,370
296,88	-1,308
297,09	5,070
297,31	3,057
297,52	3,089
297,73	1,088
297,94	6,387
298,15	2,344
298,37	4,605
298,58	4,816
298,79	6,002
299,00	0,109
299,21	1,118
299,43	1,759
299,64	5,670
299,85	5,103
300,06	0,385
300,27	0,672
300,49	6,473
300,70	3,012
300,91	2,165
301,12	2,121
301,33	7,041
301,54	2,639
301,76	3,401
301,97	3,032
302,18	1,974
302,39	6,514
302,60	11,066
302,82	2,808
303,03	6,874
303,24	3,633
303,45	3,566
303,66	1,031
303,87	1,656
304,09	3,213
304,30	0,446
304,51	3,225
304,72	1,338
304,93	4,477
305,14	4,155
305,36	1,033
305,57	-0,356
305,78	6,113
305,99	1,888
306,20	1,764
306,41	-0,797
306,62	-0,240
306,84	1,249
307,05	1,746
307,26	3,204
307,47	7,546
307,68	3,142
307,89	1,791
308,11	4,496
308,32	2,966
308,53	1,768
308,74	2,298
308,95	2,420
309,16	5,612
309,37	6,044
309,59	0,306
309,80	1,369
310,01	4,808
310,22	5,222
310,43	2,081
310,64	3,780
310,85	5,312
311,06	1,146
311,28	2,330
311,49	4,341
311,70	7,697
311,91	-0,473
312,12	1,974
312,33	5,673
312,54	5,878
312,75	2,736
312,97	0,874
313,18	3,034
313,39	3,148
313,60	3,054
313,81	4,880
314,02	3,982
314,23	3,738
314,44	2,177
314,65	2,715
314,87	0,986
315,08	4,588
315,29	3,133
315,50	3,816
315,71	4,038
315,92	6,798
316,13	4,252
316,34	4,088
316,55	2,232
316,77	-1,026
316,98	2,792
317,19	0,056
317,40	4,560
317,61	6,556
317,82	-0,591
318,03	2,152
318,24	2,388
318,45	6,351
318,66	3,629
318,87	0,423
319,09	6,142
319,30	2,489
319,51	2,835
319,72	3,599
319,93	4,373
320,14	5,371
320,35	5,136
320,56	-1,605
320,77	0,847
320,98	6,877
321,19	3,740
321,40	2,777
321,62	3,534
321,83	2,971
322,04	5,331
322,25	1,835
322,46	8,833
322,67	7,162
322,88	4,750
323,09	3,106
323,30	5,099
323,51	3,486
323,72	4,344
323,93	0,952
324,14	3,526
324,35	-0,145
324,56	0,008
324,77	2,553
324,99	1,968
325,20	1,425
325,41	5,964
325,62	3,033
325,83	0,593
326,04	2,362
326,25	3,789
326,46	0,713
326,67	3,219
326,88	5,038
327,09	1,014
327,30	1,946
327,51	3,303
327,72	3,314
327,93	4,536
328,14	0,523
328,35	2,074
328,56	4,411
328,77	2,173
328,98	4,418
329,19	5,169
329,40	4,420
329,61	1,571
329,82	1,067
330,04	2,671
330,25	1,848
330,46	5,136
330,67	1,483
330,88	0,113
331,09	2,895
331,30	2,661
331,51	4,403
331,72	0,878
331,93	3,413
332,14	0,651
332,35	4,942
332,56	4,534
332,77	6,293
332,98	0,665
333,19	2,269
333,40	2,600
333,61	1,061
333,82	4,930
334,03	4,706
334,24	4,564
334,45	2,904
334,66	4,150
334,87	2,899
335,08	1,519
335,29	1,096
335,50	1,562
335,71	2,342
335,92	3,051
336,13	7,315
336,34	2,049
336,55	6,610
336,76	3,962
336,97	4,644
337,18	1,063
337,39	3,666
337,60	2,993
337,81	2,269
338,02	2,391
338,23	3,691
338,44	4,893
338,65	3,354
338,86	4,110
339,07	-0,736
339,28	0,637
339,49	2,665
339,70	0,093
339,91	2,647
340,11	6,402
340,32	3,293
340,53	-1,384
340,74	-0,285
340,95	1,621
341,16	2,839
341,37	5,850
341,58	1,891
341,79	1,904
342,00	4,298
342,21	0,087
342,42	5,451
342,63	3,906
342,84	0,689
343,05	1,039
343,26	6,119
343,47	2,042
343,68	1,504
343,89	2,175
344,10	2,664
344,31	4,387
344,52	1,959
344,73	3,640
344,94	4,475
345,14	5,138
345,35	5,362
345,56	5,065
345,77	3,152
345,98	0,832
346,19	5,792
346,40	4,908
346,61	3,464
346,82	3,614
347,03	2,431
347,24	2,309
347,45	0,121
347,66	7,259
347,87	0,707
348,08	4,199
348,28	0,010
348,49	1,706
348,70	5,758
348,91	3,271
349,12	0,466
349,33	14,678
349,54	1,922
349,75	2,987
349,96	2,931
350,17	4,498
350,38	2,670
350,59	3,457
350,80	3,618
351,00	3,149
351,21	9,129
351,42	2,964
351,63	3,446
351,84	1,736
352,05	5,408
352,26	3,428
352,47	2,813
352,68	4,909
352,89	7,749
353,09	4,959
353,30	0,522
353,51	2,946
353,72	5,449
353,93	6,439
354,14	1,921
354,35	2,684
354,56	4,679
354,77	1,219
354,98	-1,037
355,18	3,242
355,39	6,612
355,60	1,742
355,81	2,474
356,02	4,102
356,23	0,734
356,44	3,998
356,65	2,044
356,85	8,723
357,06	2,005
357,27	5,147
357,48	2,379
357,69	1,985
357,90	3,499
358,11	-0,687
358,32	1,561
358,52	4,559
358,73	3,555
358,94	0,459
359,15	5,215
359,36	3,948
359,57	3,803
359,78	4,879
359,98	3,222
360,19	0,221
360,40	5,827
360,61	3,775
360,82	1,969
361,03	7,962
361,24	4,062
361,44	1,553
361,65	4,158
361,86	0,655
362,07	2,808
362,28	1,856
362,49	-1,207
362,70	6,497
362,90	6,453
363,11	3,540
363,32	1,674
363,53	4,643
363,74	6,998
363,95	1,703
364,15	1,129
364,36	6,965
364,57	6,689
364,78	2,714
364,99	3,497
365,20	2,914
365,40	4,368
365,61	3,596
365,82	7,340
366,03	5,511
366,24	4,608
366,45	3,491
366,65	2,422
366,86	4,305
367,07	4,164
367,28	3,073
367,49	3,484
367,69	5,896
367,90	3,891
368,11	3,934
368,32	-0,367
368,53	2,584
368,73	6,694
368,94	3,040
369,15	3,151
369,36	4,292
369,57	4,442
369,78	1,790
369,98	6,008
370,19	8,331
370,40	2,156
370,61	2,310
370,82	2,381
371,02	4,081
371,23	7,945
371,44	4,020
371,65	3,039
371,85	3,996
372,06	0,635
372,27	2,627
372,48	3,481
372,69	1,574
372,89	1,282
373,10	0,107
373,31	1,208
373,52	4,298
373,73	5,988
373,93	3,950
374,14	3,080
374,35	8,100
374,56	5,121
374,76	1,841
374,97	3,140
375,18	4,002
375,39	6,601
375,60	6,800
375,80	5,701
376,01	5,679
376,22	4,870
376,43	3,853
376,63	5,576
376,84	4,637
377,05	5,518
377,26	1,961
377,46	2,877
377,67	4,918
377,88	4,712
378,09	2,372
378,29	0,369
378,50	6,534
378,71	4,590
378,92	1,972
379,12	0,735
379,33	4,941
379,54	1,972
379,75	4,120
379,95	0,880
380,16	3,654
380,37	7,386
380,58	2,695
380,78	6,769
380,99	3,946
381,20	2,910
381,41	4,939
381,61	8,226
381,82	5,242
382,03	3,149
382,24	3,119
382,44	4,699
382,65	4,605
382,86	2,762
383,06	4,784
383,27	2,243
383,48	2,893
383,69	6,018
383,89	2,130
384,10	4,459
384,31	3,070
384,51	6,500
384,72	4,952
384,93	3,694
385,14	2,284
385,34	5,978
385,55	2,924
385,76	1,313
385,96	4,410
386,17	1,529
386,38	5,343
386,59	7,696
386,79	2,864
387,00	10,426
387,21	7,622
387,41	6,553
387,62	1,497
387,83	7,226
388,03	3,540
388,24	-0,389
388,45	2,503
388,66	4,349
388,86	3,837
389,07	3,869
389,28	6,447
389,48	5,797
389,69	1,612
389,90	5,190
390,10	7,745
390,31	8,030
390,52	0,144
390,72	3,828
390,93	3,094
391,14	2,444
391,34	3,534
391,55	8,563
391,76	7,382
391,96	6,021
392,17	3,847
392,38	3,591
392,58	6,970
392,79	2,586
393,00	2,982
393,20	3,113
393,41	1,031
393,62	6,366
393,82	1,306
394,03	5,419
394,24	4,392
394,44	7,997
394,65	4,350
394,86	1,654
395,06	7,320
395,27	3,648
395,48	3,182
395,68	6,502
395,89	6,580
396,10	10,151
396,30	-0,021
396,51	0,818
396,72	4,524
396,92	1,968
397,13	5,758
397,34	3,242
397,54	3,139
397,75	3,068
397,95	3,466
398,16	4,276
398,37	4,304
398,57	5,283
398,78	7,090
398,99	7,221
399,19	7,976
399,40	7,905
399,60	2,612
399,81	6,736
400,02	7,323
400,22	6,601
400,43	6,950
400,64	6,270
400,84	5,561
401,05	8,219
401,25	7,949
401,46	7,641
401,67	7,187
401,87	7,612
402,08	3,290
402,29	3,111
402,49	10,613
402,70	7,735
402,90	3,264
403,11	6,089
403,32	6,925
403,52	7,177
403,73	6,109
403,93	6,617
404,14	10,170
404,35	9,288
404,55	4,512
404,76	4,398
404,96	6,215
405,17	12,429
405,38	10,930
405,58	2,805
405,79	9,281
405,99	8,591
406,20	6,101
406,40	5,046
406,61	10,627
406,82	6,657
407,02	10,636
407,23	7,310
407,43	8,940
407,64	6,995
407,85	7,975
408,05	5,702
408,26	14,805
408,46	7,621
408,67	4,430
408,87	7,389
409,08	8,924
409,29	10,414
409,49	8,721
409,70	10,299
409,90	12,412
410,11	6,731
410,31	10,998
410,52	8,348
410,72	6,943
410,93	11,495
411,14	7,082
411,34	7,542
411,55	12,771
411,75	12,365
411,96	8,542
412,16	9,977
412,37	10,005
412,57	11,178
412,78	10,783
412,99	9,795
413,19	9,853
413,40	9,149
413,60	5,981
413,81	10,514
414,01	9,836
414,22	7,856
414,42	11,544
414,63	7,072
414,83	15,953
415,04	16,159
415,24	14,800
415,45	9,210
415,65	12,559
415,86	13,396
416,07	8,811
416,27	10,781
416,48	15,340
416,68	14,114
416,89	9,910
417,09	9,579
417,30	13,281
417,50	10,354
417,71	12,786
417,91	14,445
418,12	11,537
418,32	10,806
418,53	13,307
418,73	10,418
418,94	11,931
419,14	14,105
419,35	8,932
419,55	10,699
419,76	15,681
419,96	9,060
420,17	12,641
420,37	14,156
420,58	15,391
420,78	14,200
420,99	9,894
421,19	14,030
421,40	11,528
421,60	17,854
421,81	14,312
422,01	14,459
422,22	12,593
422,42	15,070
422,63	14,569
422,83	12,111
423,04	14,460
423,24	15,045
423,45	13,056
423,65	17,225
423,86	15,683
424,06	17,098
424,27	11,571
424,47	9,782
424,67	13,459
424,88	16,758
425,08	14,802
425,29	18,586
425,49	14,645
425,70	5,841
425,90	15,643
426,11	12,426
426,31	16,769
426,52	17,115
426,72	11,506
426,93	11,358
427,13	16,615
427,33	11,360
427,54	15,157
427,74	18,457
427,95	16,904
428,15	12,090
428,36	15,474
428,56	15,212
428,77	19,230
428,97	14,442
429,18	14,492
429,38	13,408
429,58	19,896
429,79	14,205
429,99	13,458
430,20	10,751
430,40	21,918
430,61	10,950
430,81	13,486
431,01	15,584
431,22	17,441
431,42	19,718
431,63	12,273
431,83	15,461
432,04	16,125
432,24	18,095
432,44	16,803
432,65	16,280
432,85	16,020
433,06	17,156
433,26	12,779
433,47	14,477
433,67	15,369
433,87	15,100
434,08	15,462
434,28	13,058
434,49	15,759
434,69	20,896
434,89	11,929
435,10	16,783
435,30	18,960
435,51	11,351
435,71	15,868
435,91	13,723
436,12	16,598
436,32	16,694
436,53	14,671
436,73	15,413
436,93	16,044
437,14	16,879
437,34	18,289
437,55	15,539
437,75	14,463
437,95	19,024
438,16	14,151
438,36	15,922
438,57	12,586
438,77	16,702
438,97	19,584
439,18	18,321
439,38	16,980
439,58	13,250
439,79	20,291
439,99	12,823
440,20	16,307
440,40	16,164
440,60	14,252
440,81	16,698
441,01	20,670
441,21	19,028
441,42	19,153
441,62	19,369
441,83	15,905
442,03	17,516
442,23	17,857
442,44	15,395
442,64	17,891
442,84	15,552
443,05	15,133
443,25	15,199
443,45	16,187
443,66	17,407
443,86	16,347
444,06	18,331
444,27	17,282
444,47	17,068
444,67	12,981
444,88	18,765
445,08	20,172
445,28	19,683
445,49	13,434
445,69	15,754
445,90	19,769
446,10	19,998
446,30	19,433
446,51	15,487
446,71	20,453
446,91	25,313
447,12	21,605
447,32	16,739
447,52	22,090
447,72	19,027
447,93	17,656
448,13	12,310
448,33	25,458
448,54	20,409
448,74	17,084
448,94	16,196
449,15	23,504
449,35	23,412
449,55	16,331
449,76	23,711
449,96	18,916
450,16	19,119
450,37	13,479
450,57	16,378
450,77	13,562
450,98	19,153
451,18	20,953
451,38	19,556
451,58	17,897
451,79	18,526
451,99	19,665
452,19	17,519
452,40	21,853
452,60	15,905
452,80	18,615
453,00	23,968
453,21	20,246
453,41	21,218
453,61	18,131
453,82	19,405
454,02	15,570
454,22	24,670
454,42	21,955
454,63	18,277
454,83	18,761
455,03	20,230
455,24	19,187
455,44	20,670
455,64	17,303
455,84	18,813
456,05	18,162
456,25	10,953
456,45	21,314
456,65	18,783
456,86	17,764
457,06	19,199
457,26	23,427
457,47	24,331
457,67	21,173
457,87	14,365
458,07	13,339
458,28	23,672
458,48	21,988
458,68	18,724
458,88	23,408
459,09	21,685
459,29	22,073
459,49	19,711
459,69	19,786
459,90	20,383
460,10	17,743
460,30	21,497
460,50	21,876
460,71	19,932
460,91	14,915
461,11	21,570
461,31	12,372
461,52	24,275
461,72	17,369
461,92	16,948
462,12	25,718
462,32	20,853
462,53	22,658
462,73	15,360
462,93	21,842
463,13	19,717
463,34	19,915
463,54	20,853
463,74	21,095
463,94	19,759
464,14	20,357
464,35	19,069
464,55	21,604
464,75	25,379
464,95	21,434
465,16	14,288
465,36	26,052
465,56	19,558
465,76	16,818
465,96	16,793
466,17	19,570
466,37	18,220
466,57	22,242
466,77	20,501
466,97	18,121
467,18	23,082
467,38	18,161
467,58	21,842
467,78	25,530
467,98	20,129
468,19	19,137
468,39	22,505
468,59	22,114
468,79	22,405
468,99	20,210
469,19	19,505
469,40	22,924
469,60	12,616
469,80	19,495
470,00	22,572
470,20	22,878
470,41	19,369
470,61	23,395
470,81	22,499
471,01	17,902
471,21	19,961
471,41	17,257
471,62	19,763
471,82	17,339
472,02	17,038
472,22	19,816
472,42	20,314
472,62	21,977
472,83	20,468
473,03	22,451
473,23	19,889
473,43	25,857
473,63	21,000
473,83	21,001
474,03	21,916
474,24	23,198
474,44	20,071
474,64	20,254
474,84	18,591
475,04	22,043
475,24	24,315
475,45	18,545
475,65	18,132
475,85	24,784
476,05	17,638
476,25	19,630
476,45	18,028
476,65	24,459
476,85	23,010
477,06	21,442
477,26	18,777
477,46	22,168
477,66	20,498
477,86	22,400
478,06	18,416
478,26	25,932
478,46	22,583
478,67	24,578
478,87	20,082
479,07	19,975
479,27	23,710
479,47	21,837
479,67	16,187
479,87	16,829
480,07	24,307
480,28	19,391
480,48	17,939
480,68	24,838
480,88	25,277
481,08	21,088
481,28	20,491
481,48	20,520
481,68	21,429
481,88	16,359
482,08	19,601
482,29	22,510
482,49	19,380
482,69	20,473
482,89	20,599
483,09	20,783
483,29	19,548
483,49	19,731
483,69	21,637
483,89	19,856
484,09	19,038
484,29	17,017
484,50	16,888
484,70	22,029
484,90	18,923
485,10	18,678
485,30	23,358
485,50	22,049
485,70	23,110
485,90	19,022
486,10	15,440
486,30	20,136
486,50	19,990
486,70	18,982
486,90	19,863
487,10	21,532
487,30	20,941
487,51	19,730
487,71	16,545
487,91	16,724
488,11	21,742
488,31	18,235
488,51	23,791
488,71	20,488
488,91	22,370
489,11	17,377
489,31	21,291
489,51	18,310
489,71	20,075
489,91	20,570
490,11	18,064
490,31	19,309
490,51	23,175
490,71	20,408
490,91	18,841
491,11	19,778
491,31	21,535
491,51	19,181
491,72	21,587
491,92	20,140
492,12	21,065
492,32	19,589
492,52	20,508
492,72	20,678
492,92	22,680
493,12	21,331
493,32	19,305
493,52	16,951
493,72	20,230
493,92	20,872
494,12	21,246
494,32	20,416
494,52	18,356
494,72	20,691
494,92	18,211
495,12	21,850
495,32	24,292
495,52	19,273
495,72	21,107
495,92	22,388
496,12	24,722
496,32	17,833
496,52	20,304
496,72	20,448
496,92	21,751
497,12	22,551
497,32	20,139
497,52	22,434
497,72	24,617
497,92	20,743
498,12	19,824
498,32	21,967
498,52	20,784
498,72	19,079
498,92	18,456
499,12	22,023
499,32	18,386
499,52	21,738
499,72	19,621
499,92	23,224
500,12	21,830
500,32	21,743
500,52	20,843
500,72	27,414
500,91	23,179
501,11	20,938
501,31	17,102
501,51	22,935
501,71	24,672
501,91	22,820
502,11	19,966
502,31	20,479
502,51	22,524
502,71	20,693
502,91	22,162
503,11	22,626
503,31	19,730
503,51	19,985
503,71	20,805
503,91	24,486
504,11	22,648
504,31	20,673
504,51	20,662
504,71	23,684
504,91	18,344
505,10	21,329
505,30	20,929
505,50	24,330
505,70	18,884
505,90	19,514
506,10	19,049
506,30	23,429
506,50	23,051
506,70	25,343
506,90	20,136
507,10	21,719
507,30	21,923
507,50	24,243
507,70	21,446
507,89	22,010
508,09	19,762
508,29	20,650
508,49	19,681
508,69	20,204
508,89	18,497
509,09	20,803
509,29	20,140
509,49	24,892
509,69	24,002
509,89	21,115
510,09	19,885
510,28	23,355
510,48	22,701
510,68	20,132
510,88	20,140
511,08	19,877
511,28	21,356
511,48	21,350
511,68	17,914
511,88	17,254
512,07	21,662
512,27	21,317
512,47	20,242
512,67	21,014
512,87	19,558
513,07	20,888
513,27	19,321
513,47	18,996
513,67	17,677
513,86	22,455
514,06	22,095
514,26	18,737
514,46	22,492
514,66	20,008
514,86	19,862
515,06	23,442
515,26	22,564
515,45	20,381
515,65	18,563
515,85	21,422
516,05	20,332
516,25	20,540
516,45	24,077
516,65	19,301
516,84	22,795
517,04	24,203
517,24	18,248
517,44	21,140
517,64	19,768
517,84	25,466
518,04	23,249
518,23	23,369
518,43	23,790
518,63	19,120
518,83	17,954
519,03	20,967
519,23	22,025
519,42	19,337
519,62	18,425
519,82	20,406
520,02	20,433
520,22	17,970
520,42	18,438
520,61	20,705
520,81	22,844
521,01	23,732
521,21	18,299
521,41	20,607
521,61	23,319
521,80	20,280
522,00	19,450
522,20	22,933
522,40	22,797
522,60	21,506
522,79	20,576
522,99	21,172
523,19	18,457
523,39	19,814
523,59	21,700
523,78	21,096
523,98	20,889
524,18	22,702
524,38	20,260
524,58	20,848
524,77	21,904
524,97	20,815
525,17	20,893
525,37	21,966
525,57	22,064
525,76	22,048
525,96	21,281
526,16	21,074
526,36	20,256
526,56	19,314
526,75	18,064
526,95	20,198
527,15	21,293
527,35	18,971
527,55	18,599
527,74	20,556
527,94	19,921
528,14	20,358
528,34	20,167
528,53	18,985
528,73	19,401
528,93	20,325
529,13	19,210
529,32	20,561
529,52	21,659
529,72	17,023
529,92	17,041
530,12	17,522
530,31	19,202
530,51	18,520
530,71	23,217
530,91	21,156
531,10	13,708
531,30	19,588
531,50	20,491
531,70	21,737
531,89	16,002
532,09	20,660
532,29	19,116
532,49	19,537
532,68	18,643
532,88	19,162
533,08	19,300
533,28	20,733
533,47	18,481
533,67	21,528
533,87	16,481
534,06	25,073
534,26	19,135
534,46	17,367
534,66	20,549
534,85	22,781
535,05	15,152
535,25	19,462
535,45	17,102
535,64	20,612
535,84	19,057
536,04	20,589
536,23	19,023
536,43	21,619
536,63	18,371
536,83	21,600
537,02	18,783
537,22	17,633
537,42	17,103
537,61	20,409
537,81	19,906
538,01	18,725
538,20	20,971
538,40	20,245
538,60	19,446
538,80	17,926
538,99	20,453
539,19	18,396
539,39	18,684
539,58	19,554
539,78	17,212
539,98	17,852
540,17	15,787
540,37	18,727
540,57	18,327
540,76	17,837
540,96	14,760
541,16	18,497
541,36	16,270
541,55	15,489
541,75	15,256
541,95	16,816
542,14	16,168
542,34	15,268
542,54	14,815
542,73	16,158
542,93	16,569
543,13	16,263
543,32	14,936
543,52	17,400
543,72	14,683
543,91	16,247
544,11	15,523
544,31	15,244
544,50	15,676
544,70	15,908
544,89	15,328
545,09	17,876
545,29	16,010
545,48	15,618
545,68	17,419
545,88	16,992
546,07	16,074
546,27	15,889
546,47	16,720
546,66	17,092
546,86	18,984
547,06	15,563
547,25	16,826
547,45	18,086
547,64	19,337
547,84	18,540
548,04	17,623
548,23	18,137
548,43	18,358
548,63	19,239
548,82	16,764
549,02	16,751
549,21	18,003
549,41	18,389
549,61	18,037
549,80	18,662
550,00	18,732
550,20	15,750
550,39	19,804
550,59	16,292
550,78	20,372
550,98	16,333
551,18	19,078
551,37	19,955
551,57	18,852
551,76	20,827
551,96	19,732
552,16	17,226
552,35	18,817
552,55	18,701
552,74	17,637
552,94	19,318
553,14	18,178
553,33	17,953
553,53	17,823
553,72	18,212
553,92	21,784
554,12	17,679
554,31	18,064
554,51	19,073
554,70	15,672
554,90	19,865
555,09	19,148
555,29	21,091
555,49	20,220
555,68	20,073
555,88	17,736
556,07	19,270
556,27	19,469
556,46	19,814
556,66	16,337
556,86	21,308
557,05	17,998
557,25	18,932
557,44	17,681
557,64	19,740
557,83	19,268
558,03	19,254
558,22	16,283
558,42	18,236
558,62	21,654
558,81	20,268
559,01	18,714
559,20	21,295
559,40	18,340
559,59	19,875
559,79	16,760
559,98	19,575
560,18	20,070
560,37	18,806
560,57	19,392
560,76	17,561
560,96	17,210
561,16	21,674
561,35	16,800
561,55	21,923
561,74	17,781
561,94	18,750
562,13	20,050
562,33	21,372
562,52	19,223
562,72	16,915
562,91	17,097
563,11	20,377
563,30	20,173
563,50	15,466
563,69	17,891
563,89	17,257
564,08	20,322
564,28	17,602
564,47	19,299
564,67	19,028
564,86	19,770
565,06	17,436
565,25	18,315
565,45	18,272
565,64	22,820
565,84	21,302
566,03	18,189
566,23	18,782
566,42	20,057
566,62	19,296
566,81	19,685
567,01	18,566
567,20	18,816
567,40	18,049
567,59	18,157
567,79	19,570
567,98	21,230
568,18	19,137
568,37	18,115
568,57	20,374
568,76	21,570
568,96	18,009
569,15	18,454
569,35	18,704
569,54	21,315
569,73	21,145
569,93	19,136
570,12	19,336
570,32	20,278
570,51	20,225
570,71	19,944
570,90	19,781
571,10	18,093
571,29	17,908
571,49	18,493
571,68	18,311
571,87	19,133
572,07	19,759
572,26	15,291
572,46	19,435
572,65	20,292
572,85	18,546
573,04	19,927
573,24	17,819
573,43	21,912
573,62	21,294
573,82	20,708
574,01	20,661
574,21	18,743
574,40	17,588
574,60	16,431
574,79	19,706
574,98	17,058
575,18	18,831
575,37	17,802
575,57	19,776
575,76	19,041
575,96	19,298
576,15	18,453
576,34	19,031
576,54	20,903
576,73	18,708
576,93	18,211
577,12	19,398
577,31	18,104
577,51	17,424
577,70	17,772
577,90	18,798
578,09	17,921
578,28	18,140
578,48	18,549
578,67	21,878
578,87	20,185
579,06	18,043
579,25	18,999
579,45	20,564
579,64	18,196
579,84	16,803
580,03	17,171
580,22	19,597
580,42	17,856
580,61	18,135
580,81	19,083
581,00	19,494
581,19	21,899
581,39	18,403
581,58	17,297
581,77	19,057
581,97	20,434
582,16	18,754
582,35	18,617
582,55	19,304
582,74	20,343
582,94	18,659
583,13	16,373
583,32	19,365
583,52	19,789
583,71	19,506
583,90	20,209
584,10	19,484
584,29	19,090
584,48	17,853
584,68	19,264
584,87	19,438
585,06	20,404
585,26	18,244
585,45	17,557
585,65	19,987
585,84	18,739
586,03	19,653
586,23	16,993
586,42	18,909
586,61	20,070
586,81	18,884
587,00	17,738
587,19	18,458
587,39	20,538
587,58	19,989
587,77	18,747
587,97	18,718
588,16	19,278
588,35	20,022
588,54	18,522
588,74	18,544
588,93	20,931
589,12	18,536
589,32	20,147
589,51	18,956
589,70	18,609
589,90	18,642
590,09	18,545
590,28	21,113
590,48	17,077
590,67	20,226
590,86	18,610
591,06	20,749
591,25	20,539
591,44	20,298
591,63	19,675
591,83	21,233
592,02	19,486
592,21	19,999
592,41	17,756
592,60	19,569
592,79	21,293
592,98	19,702
593,18	20,470
593,37	19,149
593,56	21,708
593,76	21,402
593,95	18,314
594,14	19,349
594,33	22,006
594,53	20,490
594,72	19,664
594,91	21,746
595,10	20,256
595,30	18,726
595,49	19,563
595,68	20,507
595,88	19,601
596,07	20,094
596,26	20,946
596,45	21,154
596,65	19,838
596,84	20,221
597,03	20,678
597,22	22,372
597,42	21,641
597,61	20,834
597,80	20,776
597,99	21,503
598,19	20,412
598,38	21,237
598,57	21,209
598,76	22,022
598,95	21,611
599,15	20,013
599,34	21,422
599,53	22,172
599,72	19,188
599,92	19,687
600,11	19,625
600,30	20,433
600,49	22,796
600,69	18,802
600,88	22,078
601,07	20,705
601,26	20,594
601,45	21,759
601,65	20,838
601,84	22,218
602,03	20,114
602,22	21,723
602,42	20,692
602,61	20,830
602,80	20,718
602,99	21,731
603,18	19,547
603,38	22,101
603,57	22,144
603,76	20,489
603,95	19,894
604,14	21,675
604,34	21,258
604,53	19,651
604,72	21,703
604,91	23,711
605,10	21,097
605,29	21,149
605,49	18,896
605,68	21,419
605,87	20,500
606,06	21,052
606,25	20,065
606,45	21,574
606,64	19,337
606,83	22,225
607,02	19,646
607,21	23,240
607,40	20,733
607,60	18,052
607,79	19,184
607,98	18,683
608,17	19,530
608,36	21,270
608,55	20,804
608,75	21,674
608,94	21,046
609,13	18,703
609,32	19,429
609,51	19,949
609,70	18,818
609,89	20,389
610,09	19,222
610,28	21,863
610,47	18,544
610,66	19,995
610,85	16,748
611,04	20,898
611,23	18,810
611,43	19,662
611,62	18,706
611,81	19,188
612,00	20,201
612,19	18,413
612,38	19,364
612,57	19,925
612,77	19,907
612,96	20,537
613,15	18,718
613,34	20,175
613,53	21,517
613,72	22,168
613,91	20,361
614,10	20,004
614,29	21,968
614,49	18,069
614,68	19,123
614,87	21,241
615,06	21,840
615,25	19,160
615,44	22,067
615,63	19,728
615,82	20,943
616,01	20,305
616,21	19,952
616,40	21,460
616,59	22,032
616,78	21,011
616,97	20,733
617,16	21,683
617,35	21,394
617,54	23,146
617,73	22,081
617,92	22,517
618,11	23,671
618,31	18,600
618,50	22,786
618,69	21,373
618,88	19,570
619,07	20,413
619,26	20,309
619,45	21,788
619,64	21,160
619,83	19,036
620,02	20,510
620,21	21,832
620,40	21,423
620,59	20,151
620,78	19,346
620,97	21,789
621,17	23,263
621,36	21,494
621,55	21,723
621,74	22,453
621,93	21,513
622,12	22,007
622,31	20,013
622,50	20,100
622,69	23,867
622,88	21,893
623,07	21,522
623,26	23,175
623,45	24,196
623,64	20,755
623,83	20,816
624,02	22,436
624,21	23,382
624,40	21,748
624,59	19,379
624,78	21,515
624,97	23,552
625,16	21,372
625,35	19,508
625,54	20,192
625,73	20,960
625,92	21,144
626,12	20,008
626,31	25,366
626,50	23,731
626,69	21,623
626,88	19,707
627,07	22,251
627,26	22,080
627,45	20,779
627,64	20,766
627,83	23,284
628,02	21,415
628,21	21,212
628,40	21,682
628,59	24,341
628,78	22,021
628,97	21,143
629,16	19,829
629,35	22,577
629,54	22,509
629,73	22,232
629,92	20,715
630,10	22,581
630,29	20,876
630,48	21,927
630,67	20,314
630,86	22,526
631,05	21,138
631,24	22,891
631,43	19,181
631,62	20,775
631,81	22,355
632,00	20,911
632,19	20,354
632,38	22,307
632,57	21,751
632,76	22,805
632,95	23,974
633,14	24,769
633,33	22,704
633,52	21,266
633,71	22,369
633,90	21,819
634,09	24,422
634,28	21,562
634,47	21,435
634,66	21,774
634,85	22,298
635,04	23,710
635,22	21,722
635,41	22,462
635,60	23,156
635,79	24,921
635,98	19,798
636,17	22,581
636,36	21,585
636,55	20,773
636,74	20,993
636,93	21,061
637,12	23,585
637,31	21,589
637,50	20,925
637,69	22,340
637,87	23,810
638,06	21,960
638,25	21,477
638,44	22,610
638,63	20,054
638,82	21,946
639,01	21,850
639,20	21,432
639,39	24,147
639,58	20,085
639,77	23,189
639,95	22,346
640,14	23,475
640,33	21,302
640,52	20,851
640,71	25,002
640,90	22,957
641,09	24,248
641,28	21,770
641,47	22,186
641,66	22,312
641,84	22,015
642,03	22,594
642,22	22,151
642,41	23,388
642,60	21,550
642,79	22,331
642,98	24,122
643,17	21,797
643,35	20,155
643,54	23,541
643,73	22,748
643,92	24,626
644,11	22,666
644,30	21,078
644,49	24,463
644,67	20,867
644,86	20,790
645,05	24,593
645,24	22,171
645,43	22,499
645,62	21,517
645,81	21,524
645,99	23,726
646,18	23,124
646,37	21,078
646,56	21,314
646,75	25,207
646,94	23,702
647,13	22,762
647,31	21,855
647,50	23,071
647,69	24,092
647,88	24,487
648,07	23,250
648,26	26,208
648,44	23,040
648,63	23,700
648,82	21,316
649,01	23,261
649,20	22,107
649,38	22,879
649,57	21,138
649,76	22,555
649,95	23,834
650,14	20,913
650,33	22,265
650,51	24,690
650,70	23,104
650,89	22,207
651,08	21,737
651,27	23,934
651,45	22,276
651,64	21,625
651,83	23,078
652,02	22,042
652,21	23,545
652,39	23,704
652,58	24,294
652,77	22,564
652,96	23,346
653,15	22,012
653,33	22,410
653,52	22,422
653,71	24,210
653,90	22,542
654,09	23,227
654,27	22,413
654,46	23,729
654,65	21,784
654,84	21,541
655,02	23,241
655,21	24,144
655,40	24,254
655,59	23,447
655,77	22,879
655,96	23,303
656,15	22,987
656,34	23,933
656,53	22,772
656,71	23,703
656,90	23,801
657,09	23,130
657,28	23,242
657,46	22,516
657,65	21,545
657,84	22,400
658,03	23,802
658,21	24,688
658,40	22,922
658,59	22,914
658,78	22,609
658,96	21,405
659,15	22,851
659,34	23,989
659,52	24,551
659,71	24,783
659,90	22,697
660,09	21,136
660,27	23,352
660,46	23,524
660,65	23,102
660,84	22,260
661,02	23,211
661,21	23,594
661,40	23,006
661,58	23,305
661,77	22,814
661,96	21,834
662,15	22,428
662,33	22,682
662,52	21,188
662,71	23,061
662,89	20,835
663,08	23,720
663,27	22,945
663,45	21,473
663,64	23,304
663,83	21,355
664,02	22,848
664,20	25,032
664,39	22,068
664,58	22,410
664,76	22,825
664,95	23,109
665,14	22,121
665,32	20,625
665,51	23,458
665,70	22,820
665,88	23,301
666,07	22,542
666,26	24,964
666,44	22,584
666,63	21,561
666,82	22,311
667,00	23,767
667,19	22,049
667,38	23,031
667,56	24,690
667,75	23,596
667,94	25,464
668,12	23,340
668,31	23,563
668,50	23,014
668,68	23,998
668,87	22,742
669,06	22,139
669,24	23,688
669,43	22,126
669,62	21,041
669,80	20,840
669,99	22,340
670,18	22,329
670,36	21,154
670,55	23,284
670,74	23,375
670,92	21,140
671,11	22,565
671,29	22,705
671,48	21,703
671,67	22,793
671,85	24,176
672,04	21,717
672,23	20,584
672,41	23,599
672,60	23,215
672,78	20,623
672,97	21,761
673,16	22,180
673,34	22,181
673,53	22,077
673,71	23,554
673,90	24,216
674,09	23,471
674,27	22,691
674,46	21,746
674,64	24,274
674,83	22,418
675,02	19,943
675,20	23,445
675,39	21,486
675,57	22,680
675,76	21,814
675,95	23,563
676,13	22,954
676,32	23,300
676,50	22,534
676,69	20,687
676,88	23,353
677,06	20,812
677,25	21,796
677,43	24,381
677,62	22,655
677,80	22,711
677,99	23,276
678,18	22,732
678,36	24,644
678,55	21,983
678,73	22,114
678,92	23,982
679,10	23,399
679,29	23,033
679,48	22,408
679,66	22,453
679,85	22,612
680,03	22,104
680,22	21,209
680,40	21,968
680,59	21,867
680,77	22,384
680,96	21,508
681,15	22,176
681,33	22,059
681,52	21,668
681,70	23,059
681,89	24,022
682,07	22,707
682,26	23,298
682,44	21,957
682,63	22,510
682,81	23,342
683,00	24,833
683,18	21,767
683,37	22,867
683,55	21,568
683,74	21,999
683,92	26,757
684,11	24,395
684,29	23,142
684,48	22,289
684,67	21,999
684,85	23,415
685,04	23,446
685,22	23,978
685,41	22,898
685,59	23,207
685,78	21,398
685,96	21,276
686,15	23,038
686,33	23,591
686,52	23,156
686,70	21,455
686,89	23,430
687,07	22,576
687,26	22,308
687,44	24,125
687,62	22,058
687,81	23,956
687,99	22,095
688,18	21,896
688,36	22,292
688,55	25,022
688,73	22,707
688,92	21,847
689,10	22,759
689,29	22,855
689,47	24,079
689,66	22,693
689,84	22,440
690,03	21,895
690,21	22,449
690,40	22,774
690,58	22,412
690,76	21,507
690,95	22,659
691,13	22,025
691,32	23,155
691,50	24,581
691,69	23,532
691,87	22,167
692,06	21,739
692,24	21,558
692,43	22,749
692,61	20,987
692,79	22,367
692,98	21,934
693,16	24,168
693,35	21,950
693,53	22,966
693,72	23,629
693,90	23,708
694,08	21,651
694,27	23,244
694,45	24,353
694,64	25,706
694,82	22,212
695,01	23,069
695,19	21,613
695,37	23,013
695,56	20,754
695,74	23,221
695,93	24,917
696,11	23,241
696,29	24,490
696,48	24,102
696,66	24,991
696,85	22,951
697,03	21,758
697,21	24,875
697,40	23,378
697,58	23,555
697,77	22,476
697,95	24,226
698,13	23,717
698,32	22,842
698,50	22,215
698,69	21,181
698,87	24,360
699,05	24,776
699,24	22,298
699,42	23,370
699,60	20,466
699,79	22,661
699,97	22,913
700,16	22,381
700,34	25,018
700,52	22,731
700,71	21,490
700,89	23,325
701,07	23,300
701,26	22,515
701,44	22,443
701,63	22,013
701,81	21,419
701,99	24,305
702,18	21,739
702,36	21,884
702,54	23,156
702,73	23,546
702,91	22,477
703,09	22,081
703,28	21,856
703,46	24,662
703,64	21,796
703,83	24,894
704,01	23,807
704,19	22,269
704,38	20,552
704,56	22,362
704,74	24,726
704,93	23,104
705,11	23,013
705,29	22,503
705,48	25,576
705,66	23,065
705,84	23,849
706,03	21,205
706,21	23,648
706,39	23,369
706,58	21,886
706,76	20,379
706,94	23,951
707,12	23,352
707,31	22,296
707,49	22,276
707,67	22,518
707,86	25,113
708,04	22,962
708,22	22,826
708,41	21,935
708,59	22,460
708,77	20,959
708,95	23,085
709,14	25,760
709,32	23,453
709,50	21,001
709,69	22,425
709,87	22,011
710,05	23,848
710,23	21,142
710,42	22,744
710,60	22,006
710,78	23,165
710,97	21,900
711,15	23,195
711,33	23,378
711,51	23,411
711,70	21,604
711,88	22,266
712,06	24,495
712,24	24,166
712,43	22,907
712,61	22,003
712,79	23,374
712,97	21,597
713,16	23,978
713,34	22,174
713,52	22,981
713,70	22,530
713,89	22,767
714,07	21,941
714,25	23,259
714,43	22,529
714,62	22,265
714,80	23,200
714,98	20,097
715,16	23,328
715,35	21,001
715,53	22,718
715,71	25,091
715,89	25,016
716,07	23,676
716,26	26,577
716,44	23,981
716,62	24,025
716,80	24,092
716,99	21,822
717,17	25,204
717,35	23,705
717,53	21,416
717,71	20,998
717,90	23,332
718,08	21,819
718,26	20,299
718,44	24,022
718,62	23,947
718,81	23,795
718,99	22,018
719,17	21,989
719,35	23,506
719,53	22,828
719,72	22,233
719,90	20,758
720,08	22,006
720,26	24,909
720,44	20,322
720,62	22,367
720,81	24,375
720,99	25,070
721,17	21,840
721,35	22,051
721,53	23,601
721,72	25,227
721,90	24,145
722,08	21,672
722,26	24,139
722,44	22,505
722,62	20,986
722,81	23,273
722,99	23,688
723,17	23,319
723,35	23,479
723,53	22,070
723,71	24,152
723,89	24,129
724,08	19,675
724,26	23,615
724,44	22,221
724,62	23,299
724,80	23,775
724,98	24,036
725,16	23,307
725,35	23,776
725,53	21,460
725,71	20,863
725,89	22,587
726,07	24,397
726,25	26,523
726,43	21,896
726,61	24,306
726,80	24,033
726,98	23,665
727,16	22,774
727,34	24,367
727,52	23,115
727,70	22,117
727,88	21,929
728,06	21,215
728,25	22,661
728,43	22,639
728,61	22,674
728,79	23,569
728,97	22,916
729,15	23,210
729,33	23,939
729,51	22,814
729,69	23,853
729,87	22,894
730,06	22,315
730,24	22,131
730,42	24,560
730,60	20,119
730,78	23,357
730,96	22,615
731,14	21,649
731,32	22,366
731,50	22,496
731,68	22,807
731,86	23,733
732,04	24,025
732,22	22,106
732,41	25,472
732,59	23,355
732,77	24,496
732,95	24,553
733,13	24,236
733,31	22,563
733,49	21,362
733,67	23,392
733,85	22,870
734,03	23,489
734,21	22,548
734,39	23,004
734,57	23,427
734,75	23,759
734,93	21,769
735,11	22,474
735,29	21,684
735,47	24,989
735,65	22,289
735,84	22,070
736,02	23,493
736,20	25,873
736,38	21,517
736,56	23,808
736,74	22,677
736,92	22,894
737,10	22,584
737,28	22,738
737,46	22,770
737,64	21,373
737,82	21,404
738,00	23,011
738,18	24,418
738,36	25,153
738,54	23,318
738,72	20,532
738,90	23,378
739,08	24,117
739,26	19,465
739,44	23,819
739,62	23,178
739,80	23,025
739,98	23,396
740,16	23,122
740,34	23,445
740,52	23,359
740,70	22,001
740,88	21,704
741,06	23,280
741,24	23,842
741,42	24,658
741,60	22,278
741,78	24,270
741,96	22,868
742,14	22,686
742,32	21,483
742,50	23,736
742,68	23,463
742,86	22,079
743,04	21,989
743,21	23,612
743,39	23,591
743,57	21,211
743,75	21,323
743,93	20,056
744,11	21,222
744,29	22,790
744,47	22,342
744,65	25,090
744,83	23,222
745,01	22,020
745,19	22,752
745,37	26,589
745,55	23,355
745,73	23,155
745,91	20,149
746,09	24,452
746,27	23,148
746,45	19,959
746,62	22,561
746,80	22,495
746,98	24,706
747,16	22,151
747,34	24,794
747,52	23,529
747,70	21,853
747,88	22,978
748,06	23,788
748,24	24,692
748,42	22,656
748,60	23,203
748,78	22,587
748,95	24,004
749,13	26,110
749,31	22,311
749,49	22,466
749,67	25,047
749,85	25,476
750,03	23,831
750,21	23,183
750,39	24,706
750,57	25,361
750,74	23,644
750,92	22,335
751,10	23,939
751,28	19,703
751,46	23,154
751,64	22,948
751,82	24,479
752,00	23,221
752,17	22,930
752,35	21,540
752,53	23,579
752,71	23,472
752,89	21,430
753,07	23,877
753,25	23,961
753,43	21,961
753,60	24,892
753,78	21,805
753,96	24,813
754,14	25,468
754,32	25,398
754,50	22,002
754,68	24,638
754,85	24,326
755,03	24,600
755,21	21,093
755,39	22,539
755,57	22,838
755,75	24,063
755,92	22,286
756,10	21,206
756,28	25,326
756,46	21,115
756,64	23,732
756,82	25,088
756,99	24,303
757,17	21,075
757,35	21,109
757,53	26,209
757,71	24,288
757,89	22,391
758,06	23,539
758,24	23,464
758,42	23,297
758,60	23,908
758,78	21,283
758,95	23,278
759,13	24,264
759,31	21,588
759,49	21,484
759,67	22,607
759,84	24,067
760,02	22,452
760,20	22,351
760,38	22,964
760,56	22,288
760,73	23,395
760,91	22,228
761,09	26,311
761,27	22,544
761,45	21,973
761,62	23,022
761,80	23,266
761,98	24,270
762,16	22,988
762,33	22,871
762,51	24,658
762,69	25,059
762,87	23,395
763,05	23,996
763,22	21,097
763,40	22,270
763,58	23,543
763,76	21,998
763,93	25,222
764,11	25,184
764,29	23,189
764,47	24,232
764,64	24,059
764,82	23,712
765,00	21,764
765,18	21,955
765,35	22,986
765,53	22,788
765,71	23,011
765,89	23,369
766,06	22,275
766,24	24,083
766,42	23,420
766,60	23,384
766,77	23,673
766,95	23,089
767,13	23,074
767,30	23,552
767,48	22,797
767,66	22,950
767,84	21,030
768,01	22,740
768,19	22,349
768,37	22,536
768,54	21,173
768,72	23,707
768,90	24,090
769,08	23,032
769,25	24,465
769,43	22,524
769,61	20,047
769,78	24,001
769,96	23,246
770,14	25,070
770,31	26,174
770,49	24,346
770,67	23,881
770,85	21,772
771,02	23,602
771,20	23,514
771,38	23,943
771,55	22,391
771,73	22,621
771,91	24,695
772,08	24,373
772,26	23,001
772,44	24,303
772,61	22,427
772,79	22,399
772,97	24,192
773,14	18,881
773,32	23,978
773,50	21,878
773,67	25,317
773,85	23,838
774,03	24,070
774,20	22,989
774,38	22,238
774,56	21,620
774,73	22,447
774,91	23,181
775,09	24,534
775,26	25,884
775,44	23,087
775,61	24,218
775,79	22,870
775,97	22,971
776,14	23,254
776,32	23,230
776,50	22,073
776,67	22,496
776,85	23,504
777,03	21,841
777,20	24,661
777,38	27,378
777,55	24,176
777,73	20,468
777,91	21,372
778,08	23,417
778,26	24,116
778,43	23,963
778,61	18,846
778,79	22,557
778,96	20,024
779,14	22,905
779,32	22,756
779,49	22,612
779,67	25,155
779,84	23,355
780,02	25,286
780,20	18,616
780,37	24,673
780,55	19,136
780,72	24,559
780,90	24,145
781,07	25,948
781,25	24,423
781,43	23,823
781,60	21,600
781,78	22,448
781,95	23,696
782,13	24,336
782,30	23,406
782,48	22,601
782,66	23,150
782,83	21,200
783,01	28,535
783,18	23,937
783,36	24,388
783,53	25,754
783,71	24,879
783,89	22,091
784,06	23,217
784,24	21,614
784,41	26,441
784,59	25,248
784,76	23,144
784,94	25,086
785,11	24,734
785,29	24,635
785,46	22,949
785,64	22,556
785,82	24,815
785,99	24,608
786,17	21,906
786,34	19,872
786,52	23,035
786,69	25,231
786,87	22,502
787,04	24,068
787,22	21,250
787,39	22,568
787,57	23,793
787,74	24,028
787,92	26,018
788,09	25,709
788,27	22,957
788,44	21,513
788,62	23,456
788,79	23,093
788,97	25,859
789,14	23,129
789,32	23,710
789,49	22,699
789,67	23,002
789,84	21,337
790,02	23,956
790,19	22,865
790,37	22,447
790,54	22,696
790,72	26,865
790,89	28,260
791,07	24,942
791,24	20,760
791,42	24,947
791,59	27,229
791,77	22,659
791,94	19,885
792,12	23,569
792,29	25,187
792,47	22,997
792,64	23,961
792,81	27,791
792,99	24,648
793,16	26,543
793,34	25,412
793,51	21,483
793,69	24,035
793,86	21,129
794,04	21,518
794,21	28,105
794,39	19,661
794,56	21,825
794,73	24,359
794,91	26,180
795,08	24,793
795,26	24,230
795,43	22,348
795,61	25,294
795,78	23,058
795,95	21,854
796,13	22,789
796,30	25,186
796,48	26,042
796,65	21,672
796,83	25,435
797,00	26,105
797,17	21,846
797,35	25,500
797,52	24,536
797,70	26,196
797,87	24,321
798,04	21,173
798,22	24,261
798,39	22,469
798,57	23,424
798,74	26,429
798,91	24,473
799,09	23,186
799,26	26,486
799,44	25,774
799,61	24,606
799,78	24,560
799,96	25,290
800,13	23,467
800,31	22,487
800,48	27,156
800,65	26,780
800,83	24,424
801,00	21,504
801,17	23,085
801,35	23,703
801,52	23,758
801,70	24,071
801,87	27,011
802,04	27,616
802,22	23,225
802,39	23,051
802,56	25,213
802,74	24,996
802,91	24,085
803,08	21,294
803,26	24,460
803,43	27,458
803,61	22,174
803,78	24,130
803,95	23,878
804,13	24,278
804,30	20,490
804,47	26,432
804,65	28,137
804,82	26,050
804,99	25,283
805,17	24,901
805,34	28,528
805,51	25,880
805,69	21,359
805,86	25,598
806,03	29,243
806,21	23,491
806,38	23,230
806,55	27,772
806,72	27,475
806,90	29,274
807,07	23,399
807,24	22,223
807,42	23,120
807,59	26,399
807,76	19,402
807,94	21,110
808,11	25,769
808,28	25,801
808,45	23,721
808,63	26,629
808,80	26,679
808,97	26,217
809,15	21,376
809,32	27,500
809,49	21,537
809,67	23,481
809,84	25,636
810,01	27,668
810,18	29,317
810,36	29,995
810,53	28,080
810,70	22,567
810,87	25,932
811,05	23,141
811,22	24,812
811,39	24,429
811,57	26,903
811,74	29,683
811,91	22,452
812,08	23,932
812,26	28,815
812,43	25,993
812,60	25,690
812,77	24,851
812,95	23,743
813,12	27,370
813,29	22,030
813,46	25,244
813,64	27,935
813,81	22,099
813,98	23,700
814,15	28,033
814,32	27,467
814,50	26,193
814,67	25,316
814,84	24,908
815,01	30,742
815,19	17,522
815,36	21,812
815,53	25,886
815,70	27,920
815,87	26,617
816,05	21,109
816,22	24,486
816,39	31,408
816,56	28,622
816,74	28,646
816,91	20,946
817,08	30,639
817,25	26,307
817,42	24,994
817,60	23,907
817,77	27,578
817,94	27,608
818,11	25,447
818,28	25,767
818,45	22,002
818,63	24,167
818,80	22,157
818,97	27,412
819,14	24,756
819,31	32,183
819,49	27,581
819,66	23,624
819,83	26,639
820,00	24,149
820,17	25,037
820,34	28,012
820,52	31,118
820,69	29,218
820,86	22,401
821,03	21,173
821,20	27,156
821,37	28,305
821,55	19,282
821,72	23,045
821,89	21,158
822,06	29,196
822,23	21,996
822,40	26,442
822,57	25,030
822,75	31,694
822,92	24,302
823,09	25,571
823,26	28,622
823,43	37,020
823,60	24,455
823,77	23,005
823,94	27,342
824,12	32,743
824,29	23,658
824,46	23,567
824,63	32,984
824,80	30,317
824,97	25,222
825,14	27,895
825,31	28,372
825,49	27,572
825,66	19,779
825,83	19,118
826,00	30,114
826,17	35,113
826,34	25,982
826,51	16,884
826,68	26,295
826,85	26,662
827,02	24,459
827,20	21,757
827,37	27,385
827,54	29,472
827,71	24,398
827,88	28,187
828,05	28,705
828,22	27,407
828,39	28,829
828,56	27,707
828,73	27,523
828,90	28,761
829,07	26,614
829,25	25,290
829,42	28,124
829,59	26,868
829,76	25,264
829,93	16,816
830,10	28,742
830,27	28,272
830,44	24,074
830,61	26,976
830,78	36,991
830,95	22,628
831,12	21,366
831,29	26,351
831,46	20,306
831,63	22,851
831,80	27,838
831,97	21,147
832,14	33,216
832,31	37,364
832,48	24,839
832,65	32,247
832,83	18,380
833,00	29,074
833,17	24,378
833,34	24,447
833,51	27,477
833,68	38,185
833,85	27,701
834,02	20,197
834,19	24,198
834,36	27,842
834,53	20,803
834,70	29,688
834,87	38,992
835,04	35,453
835,21	30,253
835,38	24,076
835,55	29,991
835,72	37,267
835,89	29,636
836,06	27,213
836,23	44,112
836,40	21,236
836,57	19,645
836,74	27,148
836,91	22,895
837,08	38,645
837,25	28,449
837,42	18,072
837,59	30,132
837,76	30,621
837,93	24,289
838,09	23,085
838,26	28,000
838,43	35,575
838,60	32,992
838,77	23,538
838,94	35,487
839,11	23,821
839,28	23,658
839,45	24,514
839,62	35,245
839,79	25,602
839,96	28,588
840,13	32,018
840,30	27,059
840,47	16,357
840,64	28,784
840,81	36,820
840,98	23,991
841,15	36,168
841,32	20,498
841,48	34,686
841,65	30,823
841,82	35,039
841,99	28,686
842,16	23,906
842,33	30,066
842,50	26,891
842,67	22,216
842,84	26,552
843,01	31,356
843,18	28,110
843,35	30,071
843,52	22,583
843,68	41,963
843,85	25,667
844,02	29,015
844,19	17,579
844,36	30,496
844,53	41,989
844,70	29,087
844,87	30,067
845,04	36,462
845,21	24,779
845,37	28,634
845,54	22,335
845,71	26,209
845,88	39,998
846,05	26,173
846,22	21,429
846,39	31,596
846,56	29,158
846,72	2,857
846,89	20,734
847,06	39,950
847,23	38,256
847,40	19,518
847,57	21,435
847,74	26,978
847,90	35,613
848,07	26,908
848,24	25,561
848,41	29,853
848,58	35,083
848,75	25,634
848,92	27,334
849,08	22,619
849,25	32,543
849,42	18,323
849,59	29,317
849,76	21,394
849,93	22,170
850,09	27,819
850,26	22,097
850,43	37,970
850,60	28,603
850,77	24,302
850,94	22,327
851,10	29,384
851,27	28,661
851,44	24,445
851,61	18,025
851,78	42,028
851,95	36,979
852,11	26,857
852,28	17,700
852,45	32,611
852,62	35,680
852,79	30,246
852,95	23,008
853,12	37,913
853,29	32,088
853,46	26,662
853,63	33,503
853,79	19,001
853,96	19,236
854,13	47,732
854,30	8,256
854,46	47,138
854,63	35,458
854,80	27,056
854,97	33,152
855,14	41,025
855,30	41,270
855,47	26,801
855,64	32,091
855,81	33,949
855,97	37,115
856,14	40,600
856,31	17,134
856,48	45,632
856,65	49,872
856,81	14,243
856,98	23,279
857,15	27,133
857,32	40,337
857,48	26,418
857,65	32,693
857,82	41,028
857,99	40,192
858,15	29,453
858,32	29,583
858,49	19,971
858,65	49,911
858,82	18,987
858,99	20,739
859,16	43,233
859,32	37,633
859,49	29,905
859,66	25,993
859,83	35,779
859,99	27,285
860,16	38,826
860,33	31,979
860,49	34,317
860,66	38,960
860,83	22,094
861,00	27,559
861,16	44,752
861,33	38,063
861,50	28,325
861,66	33,485
861,83	50,916
862,00	33,432
862,16	49,661
862,33	15,738
862,50	60,170
862,67	29,590
862,83	20,123
863,00	44,208
863,17	61,036
863,33	25,435
863,50	-1,821
863,67	17,739
863,83	43,266
864,00	48,799
864,17	17,094
864,33	23,548
864,50	33,995
864,67	26,486
864,83	21,827
865,00	26,468
865,17	22,294
865,33	42,850
865,50	37,173
865,67	21,801
865,83	39,570
866,00	63,645
866,17	36,644
866,33	51,275
866,50	50,267
866,66	48,660
866,83	24,899
867,00	58,873
867,16	35,165
867,33	57,420
867,50	14,007
867,66	14,569
867,83	44,385
868,00	54,356
868,16	26,307
868,33	11,946
868,49	44,828
868,66	44,050
868,83	43,584
868,99	34,676
869,16	68,419
869,32	60,967
869,49	34,345
869,66	10,253
869,82	76,384
869,99	48,921
870,15	15,469
870,32	47,988
870,49	65,341
870,65	53,411
870,82	50,963
870,98	39,994
871,15	64,886
871,32	36,661
871,48	-0,486
871,65	33,061
871,81	31,626
871,98	17,990
872,15	23,248
872,31	32,701
872,48	87,899
872,64	44,195
872,81	14,767
872,97	48,217
873,14	72,395
873,31	70,557
873,47	34,851
873,64	41,721
873,80	60,859
873,97	53,251
874,13	9,289
874,30	41,496
874,46	90,045
874,63	53,058
874,80	19,988
874,96	12,279
875,13	82,670
875,29	40,652
875,46	61,544
875,62	-12,645
875,79	65,391
875,95	42,573
876,12	17,940
876,28	7,867
876,45	68,277
876,61	29,312
876,78	25,326
876,94	25,642
877,11	48,843
877,27	64,259
877,44	27,796
877,60	27,719
877,77	76,238
877,94	90,202
878,10	18,526
878,27	50,796
878,43	90,265
878,60	38,482
878,76	32,184
878,93	18,565
879,09	98,166
879,26	69,411
879,42	18,394
879,58	11,508
879,75	80,389
879,91	82,403
880,08	-31,391
880,24	14,176
880,41	89,147
880,57	62,312
880,74	26,474
880,90	58,527
881,07	22,634
881,23	129,933
881,40	41,400
881,56	47,394
881,73	87,513
881,89	34,158
882,06	-33,140
882,22	123,806
882,38	119,129
882,55	130,271
882,71	59,235
882,88	49,008
883,04	41,798
883,21	130,782
883,37	70,327
883,54	7,135
883,70	195,918
883,86	101,908
884,03	76,567
884,19	20,411
884,36	-83,280
884,52	175,024
884,69	76,279
884,85	66,310
885,01	173,684
885,18	83,304
885,34	46,466
885,51	-50,574
885,67	93,999
>>>>> Data<<<<< Espectral Procesado Extremo
