Fichero De Datos De SpectraSuite
++++++++++++++++++++++++++++++++++++
Fecha: Wed Apr 22 11:42:48 CEST 2009
Usuario: evoflor
Presente Oscuro Del Espectro: Sí
La Referencia de Presente Del Espectro De: Sí
Muestreados de los componentes de Número de espectros: 1
Espectrómetros: USB4F02353
Tiempo de integración (usec): 500000 (USB4F02353)
Promedio de Espectros Hechos un: 5 (USB4F02353)
El Alisar Del Furgón: 0 (USB4F02353)
Párrafo de de Corregir del la del del de Eléctrica del obscuridad: Sí (USB4F02353)
Estrobo/Lámpara Permitido: No (USB4F02353)
Correct for Detector Non-linearity: No (USB4F02353)
Párrafo de de Corregir del la del del de Externa del luz: No (USB4F02353)
Procesado del espectro de Número de pixeles en: 3648
>>>>> Comienza Data<<<<< Espectral Procesado Del EL
177,79	240,311
178,00	240,311
178,22	240,311
178,44	1061,429
178,66	-175,040
178,88	182,704
179,09	-366,426
179,31	375,148
179,53	695,697
179,75	156,355
179,96	587,155
180,18	-505,877
180,40	211,178
180,62	214,085
180,83	322,355
181,05	-1763,537
181,27	-51910,000
181,49	196,283
181,70	400,423
181,92	592,437
182,14	378,645
182,36	107,247
182,58	380,900
182,79	802,277
183,01	18,838
183,23	162,478
183,45	45,200
183,66	204,381
183,88	612,412
184,10	-2220,182
184,32	168,589
184,53	167,355
184,75	-199,123
184,97	69,796
185,18	-219,380
185,40	-340,433
185,62	116,337
185,84	68,144
186,05	13,847
186,27	-131,702
186,49	2342,692
186,71	152,639
186,92	191,185
187,14	-233,012
187,36	110,159
187,58	99,797
187,79	1,809
188,01	220,726
188,23	-257,415
188,45	-35,707
188,66	79,062
188,88	-2400,182
189,10	-1266,100
189,31	-64,010
189,53	125,931
189,75	173,205
189,97	227,346
190,18	76,009
190,40	755,353
190,62	-280,378
190,83	-144,767
191,05	235,628
191,27	235,743
191,49	288,886
191,70	-210,625
191,92	-165,339
192,14	-14,929
192,35	655,729
192,57	3000,286
192,79	-4,475
193,01	135,365
193,22	98,927
193,44	-102,406
193,66	77,476
193,87	128,501
194,09	38,509
194,31	200,959
194,53	1288,182
194,74	27,113
194,96	-19,936
195,18	48,527
195,39	-341,187
195,61	-117,807
195,83	-112,848
196,04	74,707
196,26	-88,995
196,48	4,850
196,70	274,970
196,91	43,604
197,13	51,671
197,35	123,963
197,56	740,279
197,78	1401,567
198,00	438,531
198,21	557,816
198,43	-1039,593
198,65	115,484
198,86	481,331
199,08	190,852
199,30	159,737
199,51	-189,609
199,73	216,562
199,95	375,767
200,16	279,269
200,38	272,947
200,60	80,471
200,81	259,550
201,03	356,277
201,25	-1590,100
201,46	138,449
201,68	82,856
201,90	2897,955
202,11	-297,748
202,33	194,991
202,55	603,875
202,76	-58,364
202,98	278,084
203,20	187,452
203,41	-803,737
203,63	111,458
203,85	-111310,000
204,06	-25,731
204,28	-42,675
204,50	150,741
204,71	314,329
204,93	-391,120
205,15	191,596
205,36	-240,363
205,58	103,090
205,80	-108,962
206,01	55,526
206,23	138,265
206,45	241,333
206,66	136,170
206,88	-72,118
207,10	197,750
207,31	356,040
207,53	256,314
207,75	-8,959
207,96	420,970
208,18	-183,805
208,39	75,011
208,61	4157,429
208,83	-116,982
209,04	234,497
209,26	67,696
209,48	251,710
209,69	215,823
209,91	658,818
210,13	48,488
210,34	5,835
210,56	119,855
210,77	-1344,173
210,99	31,887
211,21	8612,353
211,42	-4,832
211,64	-50,965
211,86	252,881
212,07	206,373
212,29	193,300
212,50	129,360
212,72	379,654
212,94	137,662
213,15	146,148
213,37	145,110
213,58	36,563
213,80	-3396,786
214,02	9141,765
214,23	162,062
214,45	276,426
214,67	-1642,805
214,88	0,973
215,10	-219,736
215,31	-0,633
215,53	-53,841
215,75	146,626
215,96	1507,516
216,18	8,592
216,39	216,147
216,61	427,751
216,83	316,116
217,04	1200,112
217,26	115,661
217,47	175,448
217,69	257,964
217,91	130,644
218,12	-108610,000
218,34	165,837
218,55	321,512
218,77	82,027
218,99	115,140
219,20	-152,420
219,42	301,387
219,63	-12,814
219,85	-20,818
220,06	144,269
220,28	115,090
220,50	26,941
220,71	37,738
220,93	1879,434
221,14	-2103,100
221,36	146,826
221,58	38,164
221,79	108,257
222,01	1207,845
222,22	477,697
222,44	-144,831
222,65	110,486
222,87	331,538
223,09	81,844
223,30	23,206
223,52	206,937
223,73	203,541
223,95	-63,789
224,16	162,701
224,38	381,066
224,60	92,854
224,81	82,854
225,03	83,932
225,24	155,066
225,46	33,904
225,67	14,471
225,89	23,181
226,10	313,584
226,32	724,880
226,54	30,670
226,75	26,502
226,97	120,899
227,18	130,015
227,40	39,808
227,61	32,439
227,83	22,950
228,04	49,054
228,26	42,060
228,47	49,273
228,69	103,035
228,91	63,168
229,12	110,839
229,34	66,693
229,55	76,652
229,77	15,532
229,98	8,100
230,20	36,045
230,41	-29,378
230,63	64,078
230,84	17,843
231,06	36,835
231,27	39,236
231,49	27,518
231,71	-18,717
231,92	21,370
232,14	17,586
232,35	50,328
232,57	77,773
232,78	11,549
233,00	26,609
233,21	41,894
233,43	4,590
233,64	11,145
233,86	25,186
234,07	34,069
234,29	6,208
234,50	36,616
234,72	31,575
234,93	6,506
235,15	16,974
235,36	17,996
235,58	9,724
235,79	24,853
236,01	9,770
236,22	12,091
236,44	40,122
236,65	18,475
236,87	21,831
237,08	1,669
237,30	-15,281
237,51	23,959
237,73	-0,727
237,94	5,432
238,16	10,762
238,37	11,187
238,59	14,072
238,80	-5,654
239,02	8,059
239,23	19,428
239,45	1,304
239,66	17,852
239,88	29,213
240,09	24,240
240,31	8,611
240,52	8,878
240,74	11,102
240,95	14,717
241,17	9,682
241,38	-0,128
241,60	8,889
241,81	22,303
242,03	-1,884
242,24	10,764
242,46	23,398
242,67	8,767
242,89	18,200
243,10	14,201
243,32	13,524
243,53	10,168
243,75	4,312
243,96	12,013
244,18	15,334
244,39	8,268
244,60	5,790
244,82	2,847
245,03	17,585
245,25	12,955
245,46	21,472
245,68	6,800
245,89	15,857
246,11	12,068
246,32	11,842
246,54	4,245
246,75	9,764
246,97	10,508
247,18	16,437
247,39	4,086
247,61	11,817
247,82	6,588
248,04	4,440
248,25	6,408
248,47	12,021
248,68	8,777
248,90	4,675
249,11	7,164
249,33	17,555
249,54	1,042
249,75	9,731
249,97	1,895
250,18	9,910
250,40	13,759
250,61	-3,959
250,83	6,795
251,04	6,495
251,25	12,251
251,47	0,839
251,68	7,315
251,90	7,155
252,11	10,585
252,33	8,655
252,54	6,256
252,76	4,409
252,97	-1,349
253,18	1,442
253,40	2,862
253,61	0,935
253,83	8,338
254,04	5,722
254,25	5,232
254,47	4,496
254,68	6,517
254,90	2,605
255,11	9,217
255,33	5,054
255,54	2,754
255,75	7,011
255,97	2,599
256,18	1,043
256,40	7,763
256,61	7,283
256,82	1,544
257,04	7,209
257,25	0,361
257,47	6,489
257,68	4,276
257,89	9,756
258,11	5,757
258,32	2,411
258,54	1,872
258,75	10,223
258,96	6,489
259,18	4,559
259,39	1,704
259,61	8,171
259,82	6,075
260,03	5,616
260,25	7,312
260,46	5,380
260,68	3,990
260,89	3,827
261,10	3,914
261,32	2,527
261,53	4,437
261,75	6,340
261,96	0,693
262,17	9,968
262,39	8,842
262,60	1,940
262,81	-1,799
263,03	9,745
263,24	6,415
263,46	1,176
263,67	-0,548
263,88	7,343
264,10	8,558
264,31	-4,286
264,52	3,546
264,74	7,739
264,95	2,302
265,17	5,361
265,38	4,639
265,59	8,347
265,81	10,309
266,02	-1,526
266,23	-0,051
266,45	7,579
266,66	11,453
266,87	6,382
267,09	7,147
267,30	10,466
267,52	3,772
267,73	5,016
267,94	5,713
268,16	6,070
268,37	5,923
268,58	4,812
268,80	5,267
269,01	3,622
269,22	5,475
269,44	7,261
269,65	2,018
269,86	2,003
270,08	3,009
270,29	4,416
270,50	5,103
270,72	9,746
270,93	1,236
271,14	2,910
271,36	2,923
271,57	7,266
271,78	5,609
272,00	3,996
272,21	7,586
272,42	4,527
272,64	7,873
272,85	0,868
273,06	-1,298
273,28	8,973
273,49	7,273
273,70	5,467
273,92	4,945
274,13	7,197
274,34	4,851
274,56	5,717
274,77	4,118
274,98	4,403
275,20	2,627
275,41	5,526
275,62	4,786
275,84	5,743
276,05	10,726
276,26	1,893
276,47	-0,117
276,69	7,083
276,90	5,691
277,11	4,163
277,33	6,128
277,54	7,960
277,75	7,272
277,97	4,586
278,18	1,357
278,39	5,224
278,61	5,820
278,82	3,160
279,03	5,084
279,24	4,814
279,46	4,810
279,67	8,454
279,88	6,584
280,10	11,156
280,31	4,264
280,52	7,165
280,73	1,934
280,95	8,569
281,16	6,693
281,37	6,791
281,59	7,876
281,80	10,828
282,01	3,774
282,22	1,143
282,44	1,952
282,65	9,677
282,86	6,585
283,08	4,371
283,29	6,378
283,50	3,744
283,71	3,688
283,93	6,106
284,14	6,545
284,35	5,884
284,56	6,335
284,78	2,834
284,99	6,176
285,20	6,337
285,42	6,615
285,63	3,405
285,84	0,329
286,05	5,497
286,27	7,602
286,48	3,143
286,69	3,966
286,90	4,755
287,12	4,893
287,33	2,170
287,54	0,424
287,75	4,389
287,97	6,127
288,18	3,053
288,39	0,772
288,60	5,574
288,82	4,135
289,03	4,099
289,24	6,813
289,45	4,906
289,67	3,718
289,88	1,837
290,09	4,725
290,30	5,869
290,52	4,650
290,73	1,633
290,94	1,145
291,15	5,189
291,37	6,396
291,58	3,807
291,79	2,580
292,00	7,159
292,21	7,168
292,43	2,234
292,64	2,767
292,85	3,794
293,06	4,990
293,28	3,541
293,49	1,285
293,70	6,255
293,91	2,395
294,12	4,718
294,34	4,616
294,55	5,034
294,76	5,283
294,97	3,703
295,19	1,977
295,40	3,929
295,61	5,639
295,82	1,667
296,03	3,130
296,25	4,535
296,46	2,957
296,67	2,335
296,88	-0,413
297,09	6,159
297,31	7,409
297,52	5,167
297,73	3,429
297,94	9,585
298,15	3,670
298,37	3,868
298,58	6,602
298,79	6,036
299,00	1,303
299,21	4,935
299,43	1,281
299,64	7,599
299,85	5,527
300,06	2,752
300,27	4,665
300,49	8,116
300,70	5,661
300,91	5,580
301,12	3,920
301,33	5,707
301,54	4,336
301,76	5,118
301,97	2,180
302,18	3,176
302,39	8,745
302,60	11,457
302,82	3,799
303,03	7,629
303,24	3,468
303,45	3,983
303,66	3,210
303,87	2,088
304,09	5,111
304,30	3,200
304,51	4,818
304,72	2,107
304,93	6,116
305,14	5,331
305,36	1,505
305,57	2,443
305,78	4,950
305,99	2,319
306,20	4,651
306,41	1,676
306,62	3,226
306,84	2,147
307,05	1,412
307,26	4,846
307,47	10,525
307,68	5,167
307,89	4,315
308,11	5,603
308,32	2,580
308,53	3,916
308,74	5,285
308,95	3,914
309,16	5,721
309,37	5,413
309,59	2,795
309,80	6,054
310,01	3,152
310,22	6,487
310,43	2,631
310,64	6,963
310,85	7,340
311,06	4,567
311,28	4,919
311,49	6,165
311,70	6,327
311,91	0,906
312,12	3,949
312,33	3,793
312,54	5,624
312,75	4,216
312,97	3,331
313,18	5,270
313,39	2,621
313,60	2,871
313,81	2,634
314,02	5,195
314,23	6,432
314,44	2,860
314,65	4,392
314,87	3,553
315,08	3,943
315,29	5,425
315,50	5,011
315,71	5,749
315,92	6,734
316,13	4,260
316,34	5,231
316,55	5,149
316,77	1,556
316,98	3,670
317,19	3,279
317,40	7,237
317,61	9,275
317,82	2,413
318,03	3,379
318,24	4,276
318,45	8,828
318,66	3,540
318,87	1,214
319,09	4,991
319,30	5,425
319,51	7,341
319,72	5,911
319,93	6,800
320,14	7,184
320,35	7,708
320,56	1,457
320,77	0,802
320,98	9,404
321,19	5,859
321,40	4,468
321,62	7,586
321,83	7,053
322,04	5,899
322,25	5,334
322,46	7,490
322,67	5,376
322,88	3,170
323,09	5,654
323,30	9,202
323,51	8,000
323,72	5,916
323,93	4,634
324,14	4,802
324,35	1,550
324,56	0,447
324,77	1,632
324,99	2,172
325,20	-1,653
325,41	4,003
325,62	3,114
325,83	3,501
326,04	4,035
326,25	5,903
326,46	1,449
326,67	4,845
326,88	3,526
327,09	3,921
327,30	3,342
327,51	4,801
327,72	5,503
327,93	5,202
328,14	3,696
328,35	4,527
328,56	3,969
328,77	2,903
328,98	8,304
329,19	3,510
329,40	5,275
329,61	2,588
329,82	2,444
330,04	4,156
330,25	4,459
330,46	3,781
330,67	2,062
330,88	3,462
331,09	5,737
331,30	4,766
331,51	2,586
331,72	4,500
331,93	6,852
332,14	5,109
332,35	2,967
332,56	3,931
332,77	5,750
332,98	3,590
333,19	2,567
333,40	7,237
333,61	5,043
333,82	4,011
334,03	4,182
334,24	7,453
334,45	3,879
334,66	6,902
334,87	3,438
335,08	2,747
335,29	2,218
335,50	2,348
335,71	2,194
335,92	5,203
336,13	6,669
336,34	2,998
336,55	6,010
336,76	5,935
336,97	6,320
337,18	2,153
337,39	5,164
337,60	5,009
337,81	2,527
338,02	3,031
338,23	3,456
338,44	6,557
338,65	3,942
338,86	6,317
339,07	3,372
339,28	3,606
339,49	4,995
339,70	3,013
339,91	1,706
340,11	7,190
340,32	1,131
340,53	1,840
340,74	1,836
340,95	1,876
341,16	5,787
341,37	1,730
341,58	2,538
341,79	3,562
342,00	3,954
342,21	2,090
342,42	5,352
342,63	5,822
342,84	1,463
343,05	4,411
343,26	7,622
343,47	5,609
343,68	0,160
343,89	3,281
344,10	6,186
344,31	4,943
344,52	4,810
344,73	3,622
344,94	3,375
345,14	4,954
345,35	6,307
345,56	5,074
345,77	1,759
345,98	5,012
346,19	3,067
346,40	5,376
346,61	3,390
346,82	6,158
347,03	5,819
347,24	8,572
347,45	5,312
347,66	6,587
347,87	5,453
348,08	6,473
348,28	0,761
348,49	4,995
348,70	6,238
348,91	3,939
349,12	2,986
349,33	16,697
349,54	6,354
349,75	6,347
349,96	4,361
350,17	4,708
350,38	2,066
350,59	6,943
350,80	2,901
351,00	4,974
351,21	8,407
351,42	4,536
351,63	-1,080
351,84	5,349
352,05	6,361
352,26	4,194
352,47	5,246
352,68	6,770
352,89	8,661
353,09	6,716
353,30	-0,341
353,51	1,159
353,72	7,313
353,93	8,553
354,14	3,257
354,35	4,107
354,56	7,257
354,77	6,702
354,98	3,190
355,18	7,837
355,39	9,739
355,60	4,350
355,81	2,572
356,02	6,910
356,23	3,786
356,44	5,718
356,65	7,078
356,85	10,868
357,06	8,954
357,27	8,324
357,48	5,028
357,69	6,033
357,90	4,299
358,11	0,571
358,32	3,899
358,52	6,272
358,73	4,747
358,94	5,257
359,15	3,721
359,36	4,857
359,57	5,543
359,78	4,342
359,98	2,332
360,19	0,864
360,40	4,368
360,61	4,935
360,82	3,081
361,03	6,819
361,24	3,481
361,44	0,595
361,65	3,200
361,86	3,828
362,07	5,308
362,28	3,831
362,49	3,428
362,70	2,005
362,90	8,052
363,11	1,296
363,32	2,671
363,53	5,064
363,74	5,985
363,95	5,455
364,15	5,324
364,36	7,209
364,57	5,829
364,78	2,398
364,99	2,833
365,20	6,894
365,40	5,861
365,61	1,899
365,82	6,697
366,03	6,814
366,24	4,791
366,45	2,486
366,65	5,638
366,86	5,747
367,07	6,463
367,28	3,870
367,49	4,979
367,69	8,525
367,90	6,315
368,11	4,030
368,32	0,493
368,53	5,020
368,73	5,150
368,94	6,711
369,15	5,539
369,36	6,967
369,57	4,422
369,78	6,078
369,98	7,284
370,19	7,755
370,40	4,158
370,61	2,756
370,82	3,729
371,02	7,510
371,23	10,098
371,44	1,347
371,65	6,390
371,85	8,651
372,06	0,927
372,27	4,762
372,48	4,009
372,69	3,931
372,89	2,173
373,10	3,859
373,31	4,682
373,52	7,660
373,73	9,405
373,93	8,023
374,14	4,343
374,35	4,569
374,56	6,379
374,76	4,494
374,97	4,528
375,18	4,515
375,39	4,353
375,60	7,656
375,80	6,769
376,01	5,936
376,22	5,933
376,43	4,638
376,63	5,039
376,84	2,647
377,05	5,558
377,26	2,612
377,46	0,872
377,67	4,512
377,88	4,252
378,09	4,776
378,29	1,583
378,50	5,536
378,71	6,421
378,92	2,344
379,12	4,434
379,33	4,035
379,54	4,287
379,75	6,452
379,95	4,370
380,16	6,420
380,37	5,819
380,58	4,985
380,78	6,188
380,99	3,608
381,20	5,660
381,41	3,360
381,61	5,549
381,82	7,885
382,03	3,357
382,24	5,405
382,44	5,755
382,65	5,656
382,86	5,227
383,06	2,442
383,27	3,632
383,48	2,742
383,69	6,399
383,89	9,206
384,10	4,638
384,31	6,141
384,51	9,937
384,72	7,449
384,93	3,607
385,14	6,193
385,34	5,187
385,55	3,819
385,76	3,362
385,96	8,134
386,17	6,062
386,38	6,125
386,59	9,238
386,79	6,090
387,00	7,303
387,21	6,799
387,41	6,498
387,62	4,727
387,83	9,386
388,03	6,330
388,24	2,654
388,45	6,563
388,66	9,673
388,86	6,265
389,07	4,050
389,28	8,570
389,48	5,842
389,69	4,859
389,90	9,888
390,10	8,583
390,31	10,273
390,52	-0,874
390,72	3,937
390,93	7,746
391,14	4,597
391,34	5,819
391,55	7,706
391,76	9,882
391,96	7,289
392,17	5,425
392,38	8,784
392,58	10,750
392,79	6,461
393,00	3,928
393,20	6,290
393,41	9,134
393,62	6,541
393,82	12,535
394,03	8,601
394,24	8,228
394,44	11,085
394,65	11,660
394,86	4,115
395,06	10,650
395,27	5,175
395,48	6,465
395,68	9,791
395,89	10,960
396,10	8,927
396,30	5,088
396,51	5,403
396,72	11,147
396,92	8,458
397,13	10,996
397,34	5,319
397,54	11,190
397,75	6,009
397,95	7,095
398,16	9,360
398,37	8,326
398,57	9,715
398,78	11,609
398,99	12,364
399,19	9,593
399,40	10,504
399,60	5,991
399,81	11,825
400,02	10,300
400,22	12,997
400,43	9,120
400,64	12,340
400,84	9,824
401,05	13,024
401,25	13,948
401,46	12,570
401,67	9,226
401,87	12,336
402,08	8,469
402,29	10,514
402,49	17,849
402,70	12,293
402,90	10,360
403,11	10,763
403,32	12,481
403,52	11,481
403,73	11,888
403,93	14,105
404,14	17,040
404,35	14,615
404,55	7,812
404,76	9,893
404,96	15,162
405,17	12,211
405,38	15,850
405,58	11,127
405,79	15,737
405,99	12,020
406,20	13,811
406,40	9,246
406,61	13,751
406,82	14,840
407,02	16,536
407,23	12,972
407,43	10,288
407,64	9,106
407,85	13,968
408,05	9,754
408,26	22,162
408,46	15,640
408,67	12,300
408,87	12,890
409,08	12,423
409,29	19,305
409,49	16,464
409,70	17,756
409,90	15,663
410,11	17,017
410,31	18,844
410,52	17,673
410,72	15,301
410,93	17,610
411,14	12,562
411,34	13,650
411,55	21,800
411,75	23,521
411,96	15,193
412,16	16,401
412,37	17,030
412,57	20,449
412,78	21,707
412,99	15,250
413,19	17,701
413,40	19,054
413,60	11,625
413,81	14,853
414,01	20,447
414,22	16,297
414,42	18,899
414,63	14,749
414,83	22,040
415,04	23,233
415,24	15,294
415,45	13,894
415,65	20,165
415,86	21,409
416,07	18,408
416,27	19,859
416,48	21,896
416,68	24,292
416,89	14,432
417,09	20,604
417,30	20,004
417,50	22,651
417,71	19,661
417,91	20,282
418,12	18,762
418,32	18,569
418,53	20,425
418,73	23,501
418,94	19,563
419,14	19,916
419,35	17,393
419,55	22,434
419,76	20,230
419,96	21,682
420,17	18,140
420,37	23,350
420,58	26,384
420,78	25,562
420,99	23,385
421,19	25,433
421,40	21,995
421,60	30,637
421,81	17,445
422,01	23,256
422,22	21,387
422,42	26,178
422,63	24,298
422,83	23,490
423,04	28,128
423,24	28,523
423,45	19,518
423,65	22,998
423,86	25,392
424,06	25,147
424,27	21,018
424,47	23,292
424,67	20,591
424,88	23,549
425,08	26,710
425,29	30,184
425,49	23,207
425,70	21,254
425,90	24,126
426,11	23,824
426,31	24,674
426,52	23,245
426,72	22,901
426,93	23,444
427,13	26,313
427,33	22,336
427,54	23,075
427,74	27,656
427,95	27,231
428,15	23,940
428,36	25,637
428,56	23,070
428,77	24,941
428,97	25,269
429,18	28,199
429,38	24,348
429,58	27,930
429,79	28,342
429,99	27,021
430,20	21,606
430,40	31,118
430,61	23,463
430,81	22,920
431,01	28,075
431,22	30,344
431,42	31,196
431,63	24,343
431,83	24,450
432,04	27,764
432,24	27,834
432,44	25,264
432,65	24,998
432,85	29,520
433,06	25,312
433,26	23,545
433,47	25,083
433,67	25,940
433,87	25,235
434,08	21,300
434,28	25,191
434,49	25,132
434,69	29,041
434,89	23,126
435,10	25,164
435,30	32,567
435,51	22,220
435,71	22,345
435,91	24,592
436,12	23,186
436,32	24,662
436,53	26,198
436,73	23,659
436,93	28,002
437,14	26,777
437,34	26,489
437,55	26,700
437,75	25,726
437,95	31,723
438,16	24,420
438,36	24,579
438,57	26,046
438,77	24,256
438,97	29,002
439,18	29,647
439,38	26,911
439,58	24,547
439,79	28,597
439,99	25,327
440,20	32,908
440,40	29,236
440,60	24,528
440,81	32,073
441,01	31,264
441,21	30,742
441,42	27,978
441,62	32,040
441,83	27,305
442,03	29,863
442,23	29,910
442,44	26,017
442,64	31,487
442,84	24,101
443,05	26,229
443,25	26,353
443,45	31,452
443,66	29,260
443,86	27,624
444,06	28,216
444,27	27,720
444,47	23,804
444,67	25,849
444,88	31,144
445,08	31,673
445,28	30,495
445,49	26,494
445,69	26,272
445,90	31,677
446,10	32,789
446,30	29,260
446,51	31,793
446,71	33,702
446,91	33,554
447,12	34,662
447,32	29,838
447,52	30,382
447,72	31,049
447,93	28,304
448,13	25,376
448,33	34,879
448,54	32,806
448,74	25,723
448,94	29,062
449,15	34,721
449,35	32,172
449,55	29,339
449,76	34,831
449,96	29,057
450,16	30,214
450,37	28,345
450,57	28,918
450,77	27,561
450,98	31,580
451,18	33,974
451,38	29,094
451,58	33,950
451,79	28,765
451,99	31,189
452,19	26,915
452,40	32,184
452,60	30,588
452,80	31,631
453,00	33,848
453,21	28,748
453,41	29,174
453,61	30,055
453,82	32,063
454,02	25,523
454,22	34,604
454,42	30,893
454,63	29,186
454,83	30,031
455,03	34,904
455,24	29,993
455,44	29,430
455,64	27,909
455,84	26,245
456,05	28,524
456,25	28,396
456,45	30,419
456,65	27,955
456,86	28,270
457,06	35,514
457,26	34,435
457,47	37,288
457,67	31,863
457,87	24,903
458,07	29,321
458,28	34,267
458,48	35,668
458,68	24,666
458,88	33,918
459,09	32,743
459,29	29,067
459,49	32,957
459,69	31,435
459,90	31,665
460,10	26,829
460,30	29,041
460,50	28,147
460,71	30,346
460,91	27,501
461,11	29,749
461,31	29,500
461,52	32,465
461,72	27,852
461,92	32,361
462,12	35,357
462,32	28,841
462,53	29,624
462,73	29,204
462,93	31,034
463,13	33,582
463,34	29,596
463,54	27,935
463,74	29,312
463,94	31,619
464,14	27,359
464,35	24,449
464,55	32,720
464,75	34,681
464,95	30,177
465,16	26,741
465,36	32,604
465,56	27,793
465,76	27,495
465,96	25,310
466,17	29,326
466,37	30,086
466,57	33,474
466,77	29,283
466,97	30,525
467,18	34,846
467,38	32,140
467,58	31,482
467,78	33,444
467,98	29,797
468,19	31,875
468,39	36,188
468,59	33,045
468,79	31,596
468,99	30,095
469,19	29,871
469,40	27,225
469,60	18,911
469,80	30,271
470,00	32,500
470,20	34,532
470,41	24,907
470,61	35,118
470,81	26,371
471,01	29,278
471,21	30,923
471,41	29,337
471,62	28,398
471,82	27,341
472,02	28,476
472,22	31,571
472,42	28,214
472,62	33,394
472,83	28,241
473,03	33,666
473,23	28,488
473,43	33,707
473,63	31,098
473,83	31,133
474,03	29,118
474,24	33,492
474,44	30,194
474,64	29,535
474,84	30,244
475,04	31,610
475,24	30,186
475,45	30,711
475,65	30,567
475,85	33,043
476,05	25,871
476,25	31,489
476,45	28,598
476,65	34,339
476,85	31,795
477,06	28,484
477,26	30,068
477,46	30,623
477,66	30,191
477,86	29,642
478,06	28,545
478,26	32,512
478,46	29,069
478,67	31,243
478,87	27,705
479,07	29,077
479,27	30,695
479,47	30,470
479,67	25,193
479,87	29,769
480,07	27,438
480,28	29,436
480,48	27,774
480,68	29,474
480,88	34,129
481,08	31,203
481,28	30,618
481,48	31,810
481,68	31,732
481,88	25,585
482,08	32,025
482,29	32,086
482,49	27,347
482,69	31,243
482,89	30,345
483,09	31,882
483,29	29,659
483,49	26,704
483,69	30,087
483,89	29,949
484,09	24,755
484,29	24,792
484,50	27,863
484,70	29,295
484,90	29,806
485,10	29,985
485,30	28,906
485,50	32,052
485,70	29,124
485,90	27,956
486,10	24,357
486,30	27,074
486,50	26,125
486,70	28,895
486,90	28,171
487,10	31,397
487,30	27,074
487,51	28,810
487,71	26,436
487,91	27,770
488,11	29,392
488,31	27,039
488,51	30,689
488,71	25,872
488,91	29,522
489,11	26,399
489,31	28,286
489,51	28,610
489,71	28,663
489,91	28,200
490,11	25,923
490,31	29,209
490,51	28,125
490,71	29,766
490,91	28,334
491,11	28,451
491,31	30,447
491,51	27,015
491,72	26,857
491,92	31,309
492,12	30,084
492,32	28,789
492,52	30,279
492,72	28,520
492,92	28,782
493,12	28,932
493,32	28,546
493,52	25,189
493,72	27,316
493,92	29,428
494,12	30,088
494,32	30,606
494,52	27,359
494,72	29,563
494,92	28,363
495,12	32,231
495,32	32,473
495,52	27,559
495,72	29,595
495,92	30,988
496,12	32,792
496,32	27,439
496,52	27,423
496,72	28,498
496,92	30,834
497,12	27,027
497,32	30,376
497,52	32,020
497,72	32,429
497,92	31,012
498,12	30,662
498,32	27,689
498,52	29,772
498,72	26,802
498,92	26,663
499,12	30,308
499,32	28,775
499,52	30,070
499,72	29,436
499,92	30,752
500,12	31,599
500,32	29,198
500,52	29,343
500,72	35,076
500,91	29,944
501,11	30,500
501,31	25,566
501,51	29,952
501,71	33,926
501,91	30,529
502,11	28,641
502,31	31,623
502,51	33,434
502,71	29,573
502,91	29,245
503,11	31,731
503,31	32,299
503,51	26,367
503,71	29,788
503,91	31,994
504,11	30,671
504,31	30,380
504,51	32,404
504,71	34,557
504,91	30,459
505,10	31,442
505,30	31,954
505,50	32,227
505,70	29,826
505,90	30,405
506,10	30,726
506,30	28,852
506,50	32,033
506,70	32,850
506,90	29,558
507,10	30,683
507,30	31,176
507,50	31,118
507,70	32,732
507,89	32,279
508,09	29,694
508,29	30,148
508,49	31,066
508,69	27,455
508,89	29,885
509,09	29,877
509,29	31,892
509,49	32,641
509,69	33,528
509,89	31,677
510,09	29,986
510,28	34,048
510,48	28,823
510,68	28,871
510,88	28,790
511,08	30,149
511,28	31,341
511,48	28,769
511,68	29,796
511,88	27,793
512,07	30,829
512,27	30,873
512,47	28,787
512,67	27,787
512,87	26,906
513,07	31,204
513,27	27,655
513,47	29,819
513,67	29,686
513,86	32,313
514,06	28,933
514,26	29,645
514,46	31,225
514,66	28,740
514,86	31,047
515,06	31,261
515,26	33,204
515,45	27,834
515,65	27,040
515,85	28,970
516,05	29,776
516,25	29,487
516,45	31,116
516,65	29,017
516,84	31,008
517,04	33,358
517,24	29,711
517,44	29,587
517,64	32,716
517,84	32,815
518,04	28,903
518,23	31,985
518,43	33,376
518,63	29,362
518,83	29,147
519,03	31,321
519,23	30,416
519,42	29,149
519,62	28,229
519,82	27,960
520,02	31,032
520,22	31,513
520,42	29,020
520,61	32,569
520,81	32,996
521,01	32,296
521,21	28,303
521,41	30,309
521,61	33,019
521,80	28,649
522,00	28,668
522,20	31,273
522,40	33,508
522,60	28,672
522,79	29,140
522,99	32,303
523,19	26,765
523,39	30,388
523,59	30,739
523,78	34,208
523,98	28,194
524,18	30,250
524,38	28,495
524,58	29,203
524,77	33,351
524,97	28,964
525,17	29,744
525,37	32,184
525,57	35,051
525,76	28,461
525,96	30,833
526,16	31,076
526,36	28,536
526,56	29,813
526,75	28,285
526,95	31,249
527,15	30,650
527,35	28,759
527,55	30,632
527,74	33,301
527,94	30,323
528,14	28,526
528,34	28,791
528,53	29,230
528,73	30,812
528,93	31,512
529,13	26,409
529,32	31,493
529,52	31,840
529,72	28,603
529,92	30,471
530,12	30,284
530,31	28,564
530,51	29,521
530,71	30,594
530,91	30,715
531,10	26,611
531,30	27,806
531,50	27,206
531,70	29,405
531,89	29,860
532,09	28,263
532,29	26,049
532,49	29,495
532,68	27,934
532,88	30,138
533,08	27,115
533,28	28,510
533,47	28,355
533,67	30,176
533,87	29,539
534,06	33,068
534,26	29,102
534,46	27,321
534,66	30,075
534,85	31,561
535,05	23,286
535,25	27,891
535,45	29,005
535,64	30,709
535,84	28,347
536,04	26,950
536,23	30,196
536,43	30,178
536,63	28,082
536,83	29,728
537,02	27,069
537,22	29,010
537,42	27,229
537,61	28,839
537,81	28,547
538,01	30,451
538,20	27,923
538,40	25,456
538,60	27,937
538,80	25,843
538,99	28,161
539,19	26,360
539,39	25,537
539,58	25,649
539,78	22,375
539,98	23,217
540,17	22,528
540,37	21,949
540,57	23,594
540,76	21,509
540,96	20,367
541,16	23,271
541,36	21,026
541,55	19,378
541,75	21,266
541,95	20,011
542,14	19,366
542,34	16,762
542,54	17,690
542,73	20,089
542,93	19,480
543,13	19,194
543,32	18,905
543,52	20,676
543,72	19,152
543,91	19,321
544,11	20,053
544,31	18,810
544,50	18,722
544,70	19,958
544,89	20,567
545,09	21,136
545,29	20,629
545,48	20,536
545,68	18,799
545,88	21,386
546,07	21,583
546,27	22,287
546,47	21,591
546,66	23,330
546,86	23,877
547,06	23,340
547,25	22,080
547,45	23,942
547,64	23,893
547,84	26,191
548,04	27,274
548,23	26,154
548,43	25,802
548,63	27,253
548,82	27,955
549,02	25,457
549,21	24,911
549,41	26,826
549,61	25,024
549,80	25,277
550,00	26,548
550,20	25,156
550,39	27,703
550,59	27,057
550,78	27,908
550,98	25,889
551,18	26,729
551,37	27,664
551,57	27,345
551,76	27,414
551,96	26,144
552,16	26,437
552,35	27,534
552,55	29,708
552,74	27,748
552,94	30,956
553,14	27,523
553,33	27,735
553,53	25,950
553,72	27,789
553,92	29,132
554,12	26,865
554,31	30,055
554,51	30,989
554,70	26,883
554,90	28,801
555,09	30,441
555,29	30,095
555,49	30,156
555,68	29,468
555,88	25,553
556,07	29,047
556,27	29,539
556,46	27,427
556,66	24,052
556,86	30,783
557,05	28,220
557,25	28,013
557,44	27,587
557,64	27,301
557,83	28,096
558,03	28,521
558,22	27,790
558,42	29,044
558,62	32,231
558,81	27,638
559,01	27,307
559,20	28,243
559,40	27,272
559,59	27,113
559,79	28,370
559,98	30,712
560,18	31,354
560,37	28,797
560,57	30,689
560,76	28,571
560,96	26,322
561,16	30,602
561,35	27,096
561,55	32,107
561,74	27,899
561,94	29,096
562,13	29,080
562,33	30,157
562,52	29,907
562,72	28,711
562,91	26,475
563,11	27,235
563,30	32,064
563,50	26,056
563,69	28,952
563,89	29,009
564,08	29,241
564,28	27,965
564,47	27,193
564,67	28,951
564,86	29,816
565,06	28,645
565,25	27,716
565,45	31,028
565,64	31,128
565,84	26,427
566,03	27,602
566,23	28,625
566,42	29,379
566,62	28,642
566,81	28,727
567,01	27,426
567,20	30,677
567,40	25,751
567,59	26,956
567,79	29,589
567,98	33,292
568,18	29,674
568,37	30,853
568,57	29,051
568,76	29,554
568,96	28,703
569,15	28,273
569,35	29,005
569,54	32,373
569,73	29,654
569,93	28,740
570,12	28,732
570,32	29,552
570,51	29,649
570,71	29,245
570,90	32,222
571,10	29,953
571,29	28,338
571,49	27,557
571,68	28,665
571,87	29,793
572,07	29,031
572,26	26,513
572,46	28,797
572,65	29,470
572,85	27,228
573,04	30,131
573,24	28,441
573,43	31,538
573,62	32,031
573,82	29,256
574,01	29,347
574,21	28,573
574,40	27,753
574,60	27,051
574,79	32,472
574,98	28,719
575,18	28,877
575,37	28,507
575,57	28,868
575,76	30,500
575,96	28,762
576,15	28,525
576,34	29,508
576,54	28,843
576,73	29,116
576,93	29,131
577,12	28,397
577,31	28,448
577,51	27,689
577,70	26,805
577,90	28,646
578,09	29,255
578,28	28,208
578,48	28,369
578,67	29,639
578,87	29,339
579,06	26,768
579,25	28,716
579,45	28,215
579,64	26,730
579,84	27,972
580,03	27,675
580,22	29,398
580,42	27,421
580,61	27,789
580,81	28,263
581,00	29,256
581,19	28,540
581,39	28,874
581,58	26,357
581,77	26,174
581,97	28,812
582,16	26,833
582,35	27,005
582,55	27,515
582,74	29,652
582,94	27,443
583,13	25,777
583,32	29,063
583,52	27,692
583,71	29,063
583,90	27,852
584,10	27,031
584,29	28,753
584,48	26,731
584,68	26,619
584,87	28,121
585,06	27,521
585,26	26,402
585,45	26,687
585,65	29,590
585,84	26,629
586,03	27,412
586,23	24,310
586,42	27,910
586,61	28,238
586,81	26,239
587,00	27,686
587,19	26,313
587,39	28,756
587,58	27,618
587,77	29,084
587,97	27,243
588,16	28,341
588,35	27,721
588,54	28,533
588,74	25,953
588,93	28,163
589,12	27,068
589,32	27,080
589,51	27,437
589,70	25,249
589,90	25,957
590,09	26,422
590,28	29,612
590,48	25,541
590,67	26,626
590,86	27,763
591,06	27,963
591,25	29,510
591,44	27,657
591,63	26,672
591,83	28,741
592,02	27,195
592,21	25,644
592,41	27,132
592,60	28,873
592,79	28,308
592,98	26,362
593,18	27,478
593,37	27,512
593,56	26,966
593,76	28,255
593,95	26,519
594,14	26,246
594,33	28,670
594,53	27,395
594,72	26,723
594,91	30,685
595,10	29,614
595,30	26,454
595,49	27,897
595,68	29,472
595,88	27,581
596,07	28,400
596,26	29,231
596,45	28,190
596,65	26,889
596,84	25,662
597,03	29,755
597,22	29,312
597,42	30,284
597,61	28,998
597,80	27,206
597,99	27,092
598,19	29,760
598,38	27,703
598,57	28,268
598,76	28,743
598,95	28,805
599,15	29,419
599,34	28,566
599,53	28,486
599,72	28,546
599,92	28,235
600,11	27,658
600,30	28,971
600,49	28,040
600,69	28,240
600,88	28,451
601,07	28,982
601,26	28,248
601,45	29,594
601,65	27,101
601,84	28,437
602,03	29,858
602,22	28,694
602,42	27,876
602,61	27,865
602,80	28,602
602,99	28,792
603,18	26,893
603,38	26,904
603,57	27,808
603,76	26,936
603,95	26,912
604,14	28,850
604,34	26,612
604,53	28,307
604,72	29,373
604,91	30,445
605,10	28,058
605,29	27,731
605,49	25,003
605,68	27,484
605,87	29,279
606,06	27,898
606,25	26,983
606,45	27,820
606,64	27,499
606,83	28,560
607,02	27,132
607,21	27,788
607,40	27,892
607,60	24,755
607,79	26,304
607,98	25,154
608,17	24,930
608,36	24,482
608,55	26,110
608,75	26,327
608,94	25,653
609,13	23,120
609,32	20,905
609,51	23,277
609,70	20,749
609,89	23,780
610,09	21,852
610,28	24,424
610,47	22,198
610,66	20,751
610,85	19,588
611,04	24,036
611,23	20,067
611,43	20,970
611,62	21,119
611,81	21,554
612,00	21,787
612,19	20,446
612,38	21,564
612,57	24,123
612,77	22,870
612,96	23,330
613,15	22,599
613,34	24,286
613,53	24,950
613,72	24,849
613,91	24,856
614,10	23,542
614,29	25,822
614,49	23,062
614,68	24,308
614,87	24,363
615,06	26,535
615,25	23,646
615,44	27,115
615,63	26,065
615,82	23,890
616,01	24,807
616,21	25,112
616,40	27,039
616,59	28,667
616,78	25,113
616,97	26,071
617,16	26,503
617,35	26,743
617,54	26,994
617,73	26,831
617,92	25,970
618,11	27,599
618,31	24,563
618,50	26,728
618,69	24,878
618,88	25,182
619,07	25,695
619,26	24,391
619,45	26,078
619,64	23,598
619,83	25,513
620,02	25,031
620,21	27,204
620,40	26,019
620,59	25,992
620,78	24,258
620,97	26,818
621,17	26,521
621,36	25,691
621,55	24,124
621,74	25,875
621,93	27,055
622,12	25,693
622,31	24,698
622,50	24,832
622,69	27,822
622,88	26,228
623,07	28,845
623,26	26,050
623,45	27,589
623,64	24,737
623,83	25,832
624,02	27,833
624,21	28,032
624,40	27,360
624,59	25,615
624,78	27,112
624,97	27,962
625,16	26,550
625,35	22,963
625,54	24,494
625,73	25,639
625,92	24,956
626,12	27,367
626,31	28,762
626,50	26,491
626,69	26,248
626,88	24,111
627,07	26,249
627,26	27,752
627,45	25,476
627,64	26,277
627,83	28,065
628,02	24,245
628,21	25,355
628,40	25,864
628,59	27,252
628,78	25,683
628,97	24,112
629,16	21,680
629,35	24,499
629,54	26,789
629,73	25,799
629,92	24,929
630,10	25,809
630,29	26,509
630,48	27,157
630,67	25,141
630,86	26,489
631,05	24,373
631,24	25,629
631,43	23,035
631,62	26,058
631,81	24,769
632,00	25,071
632,19	24,999
632,38	26,284
632,57	26,860
632,76	25,251
632,95	27,180
633,14	28,137
633,33	26,047
633,52	24,988
633,71	26,215
633,90	25,114
634,09	25,977
634,28	26,770
634,47	25,580
634,66	24,221
634,85	25,473
635,04	28,166
635,22	25,815
635,41	25,698
635,60	27,077
635,79	25,967
635,98	23,532
636,17	26,976
636,36	24,875
636,55	24,415
636,74	25,997
636,93	26,330
637,12	26,276
637,31	26,081
637,50	23,243
637,69	25,830
637,87	26,426
638,06	24,954
638,25	25,687
638,44	25,784
638,63	23,714
638,82	25,584
639,01	26,973
639,20	26,385
639,39	27,040
639,58	25,686
639,77	26,812
639,95	25,491
640,14	26,541
640,33	26,853
640,52	23,266
640,71	27,751
640,90	26,323
641,09	27,545
641,28	25,215
641,47	26,773
641,66	26,609
641,84	25,738
642,03	25,141
642,22	24,890
642,41	28,043
642,60	26,860
642,79	24,952
642,98	26,151
643,17	25,622
643,35	24,507
643,54	25,106
643,73	27,642
643,92	27,388
644,11	24,238
644,30	24,629
644,49	26,417
644,67	25,604
644,86	24,775
645,05	26,405
645,24	24,661
645,43	24,978
645,62	26,394
645,81	25,608
645,99	27,470
646,18	25,415
646,37	24,083
646,56	26,021
646,75	26,516
646,94	27,707
647,13	25,351
647,31	24,349
647,50	25,562
647,69	27,383
647,88	25,257
648,07	28,322
648,26	28,365
648,44	25,462
648,63	24,491
648,82	26,356
649,01	27,531
649,20	25,169
649,38	24,743
649,57	25,967
649,76	25,442
649,95	27,218
650,14	23,847
650,33	25,027
650,51	26,504
650,70	25,035
650,89	25,512
651,08	24,223
651,27	24,667
651,45	25,549
651,64	24,132
651,83	25,477
652,02	25,206
652,21	27,237
652,39	26,042
652,58	26,645
652,77	26,133
652,96	27,530
653,15	25,325
653,33	26,199
653,52	27,631
653,71	27,813
653,90	26,337
654,09	27,457
654,27	26,414
654,46	28,414
654,65	26,997
654,84	26,713
655,02	28,520
655,21	27,061
655,40	28,497
655,59	26,800
655,77	27,661
655,96	28,050
656,15	28,151
656,34	28,276
656,53	27,687
656,71	27,503
656,90	28,664
657,09	28,332
657,28	28,415
657,46	25,629
657,65	27,483
657,84	25,503
658,03	27,747
658,21	25,907
658,40	26,131
658,59	26,036
658,78	28,067
658,96	25,302
659,15	25,413
659,34	25,949
659,52	25,246
659,71	27,484
659,90	25,552
660,09	27,094
660,27	25,713
660,46	27,367
660,65	25,166
660,84	25,129
661,02	26,056
661,21	27,306
661,40	26,427
661,58	26,077
661,77	25,661
661,96	24,576
662,15	25,384
662,33	26,290
662,52	25,408
662,71	26,029
662,89	25,592
663,08	26,442
663,27	25,989
663,45	26,603
663,64	24,505
663,83	23,485
664,02	24,284
664,20	26,978
664,39	25,108
664,58	23,900
664,76	25,398
664,95	27,757
665,14	25,374
665,32	24,831
665,51	26,327
665,70	24,303
665,88	27,196
666,07	25,836
666,26	27,041
666,44	26,572
666,63	25,871
666,82	24,923
667,00	25,408
667,19	23,378
667,38	25,719
667,56	26,008
667,75	25,231
667,94	26,400
668,12	24,273
668,31	25,526
668,50	27,420
668,68	25,962
668,87	25,764
669,06	25,655
669,24	27,064
669,43	24,507
669,62	24,986
669,80	24,230
669,99	25,449
670,18	26,818
670,36	23,970
670,55	25,368
670,74	25,154
670,92	24,883
671,11	26,394
671,29	24,797
671,48	24,047
671,67	25,742
671,85	27,019
672,04	23,693
672,23	23,845
672,41	26,091
672,60	26,464
672,78	24,433
672,97	25,756
673,16	26,696
673,34	24,685
673,53	23,653
673,71	26,998
673,90	24,911
674,09	26,086
674,27	25,289
674,46	24,728
674,64	26,440
674,83	25,211
675,02	23,228
675,20	25,066
675,39	25,281
675,57	24,986
675,76	24,358
675,95	27,082
676,13	24,880
676,32	24,199
676,50	25,957
676,69	23,729
676,88	24,061
677,06	24,433
677,25	24,737
677,43	28,082
677,62	25,390
677,80	26,380
677,99	25,097
678,18	26,540
678,36	27,808
678,55	24,953
678,73	24,973
678,92	25,811
679,10	26,178
679,29	26,356
679,48	23,835
679,66	25,253
679,85	24,483
680,03	25,399
680,22	24,686
680,40	25,421
680,59	25,486
680,77	25,500
680,96	25,744
681,15	23,300
681,33	27,418
681,52	25,053
681,70	24,033
681,89	27,578
682,07	25,616
682,26	24,136
682,44	26,179
682,63	24,229
682,81	26,331
683,00	25,934
683,18	24,414
683,37	27,352
683,55	25,355
683,74	25,600
683,92	28,510
684,11	26,134
684,29	25,378
684,48	23,753
684,67	25,186
684,85	24,349
685,04	26,339
685,22	25,841
685,41	25,355
685,59	25,822
685,78	25,152
685,96	24,146
686,15	24,957
686,33	24,413
686,52	25,187
686,70	25,222
686,89	25,149
687,07	25,428
687,26	25,684
687,44	26,313
687,62	24,630
687,81	27,470
687,99	24,912
688,18	24,932
688,36	25,186
688,55	26,656
688,73	25,926
688,92	23,967
689,10	25,718
689,29	25,168
689,47	26,619
689,66	25,302
689,84	24,161
690,03	23,548
690,21	25,956
690,40	24,324
690,58	24,030
690,76	23,449
690,95	25,101
691,13	25,181
691,32	25,652
691,50	25,886
691,69	26,744
691,87	23,531
692,06	24,088
692,24	23,117
692,43	24,585
692,61	24,187
692,79	23,315
692,98	23,178
693,16	26,770
693,35	24,261
693,53	23,928
693,72	24,119
693,90	24,859
694,08	25,154
694,27	23,409
694,45	28,727
694,64	27,304
694,82	24,581
695,01	23,459
695,19	24,673
695,37	24,350
695,56	24,292
695,74	24,777
695,93	25,169
696,11	23,942
696,29	25,281
696,48	26,187
696,66	25,321
696,85	24,760
697,03	25,090
697,21	27,586
697,40	24,414
697,58	26,045
697,77	25,653
697,95	25,380
698,13	25,595
698,32	24,198
698,50	25,193
698,69	24,071
698,87	26,157
699,05	26,046
699,24	24,479
699,42	23,718
699,60	22,517
699,79	24,957
699,97	23,817
700,16	23,099
700,34	28,309
700,52	23,988
700,71	24,582
700,89	24,282
701,07	24,913
701,26	24,843
701,44	23,652
701,63	24,224
701,81	25,514
701,99	23,551
702,18	24,222
702,36	23,610
702,54	24,411
702,73	24,039
702,91	23,822
703,09	22,988
703,28	24,210
703,46	25,604
703,64	25,582
703,83	25,190
704,01	25,157
704,19	24,947
704,38	23,227
704,56	24,732
704,74	25,343
704,93	24,349
705,11	24,703
705,29	24,242
705,48	27,049
705,66	25,964
705,84	24,464
706,03	22,259
706,21	25,389
706,39	23,822
706,58	24,776
706,76	22,934
706,94	26,717
707,12	26,138
707,31	23,591
707,49	23,470
707,67	25,047
707,86	25,873
708,04	24,313
708,22	22,995
708,41	24,174
708,59	26,232
708,77	22,285
708,95	25,208
709,14	26,838
709,32	24,282
709,50	22,901
709,69	22,458
709,87	24,333
710,05	25,107
710,23	24,487
710,42	23,143
710,60	23,258
710,78	27,232
710,97	23,956
711,15	23,311
711,33	24,927
711,51	23,638
711,70	22,648
711,88	22,999
712,06	26,262
712,24	25,513
712,43	24,556
712,61	22,321
712,79	24,971
712,97	23,932
713,16	24,691
713,34	24,967
713,52	25,332
713,70	24,873
713,89	24,920
714,07	24,164
714,25	24,647
714,43	27,004
714,62	24,150
714,80	23,365
714,98	22,518
715,16	24,822
715,35	23,185
715,53	23,903
715,71	24,903
715,89	26,966
716,07	25,536
716,26	27,875
716,44	25,278
716,62	24,974
716,80	23,887
716,99	23,608
717,17	26,997
717,35	25,830
717,53	24,376
717,71	24,206
717,90	22,556
718,08	24,429
718,26	23,447
718,44	25,461
718,62	26,343
718,81	25,884
718,99	22,407
719,17	24,813
719,35	24,946
719,53	24,257
719,72	23,023
719,90	25,218
720,08	23,699
720,26	26,792
720,44	23,136
720,62	24,343
720,81	25,603
720,99	25,911
721,17	24,381
721,35	26,449
721,53	25,262
721,72	25,881
721,90	23,836
722,08	24,975
722,26	27,834
722,44	24,848
722,62	25,129
722,81	24,576
722,99	25,052
723,17	22,879
723,35	23,927
723,53	23,218
723,71	25,184
723,89	26,227
724,08	21,123
724,26	22,254
724,44	25,036
724,62	24,128
724,80	23,204
724,98	24,418
725,16	28,017
725,35	24,459
725,53	23,721
725,71	24,754
725,89	24,922
726,07	25,928
726,25	26,889
726,43	24,296
726,61	27,110
726,80	24,360
726,98	25,046
727,16	24,841
727,34	25,936
727,52	23,971
727,70	22,754
727,88	22,783
728,06	23,102
728,25	21,713
728,43	24,119
728,61	23,432
728,79	23,447
728,97	25,719
729,15	24,903
729,33	25,544
729,51	25,523
729,69	24,771
729,87	23,361
730,06	24,138
730,24	25,101
730,42	25,814
730,60	23,827
730,78	24,983
730,96	25,850
731,14	24,467
731,32	23,816
731,50	22,736
731,68	26,458
731,86	25,070
732,04	26,206
732,22	23,833
732,41	26,004
732,59	25,507
732,77	25,187
732,95	25,683
733,13	25,887
733,31	25,970
733,49	21,952
733,67	24,528
733,85	25,336
734,03	24,501
734,21	24,975
734,39	24,845
734,57	26,366
734,75	26,523
734,93	20,738
735,11	23,003
735,29	23,502
735,47	24,859
735,65	25,224
735,84	22,696
736,02	25,326
736,20	27,714
736,38	22,327
736,56	24,508
736,74	25,417
736,92	25,078
737,10	23,926
737,28	25,828
737,46	24,473
737,64	24,400
737,82	23,814
738,00	25,246
738,18	24,678
738,36	25,210
738,54	23,707
738,72	21,912
738,90	23,977
739,08	24,896
739,26	22,495
739,44	23,774
739,62	25,565
739,80	25,288
739,98	24,249
740,16	23,931
740,34	24,102
740,52	26,796
740,70	24,208
740,88	22,346
741,06	23,727
741,24	26,211
741,42	25,077
741,60	24,011
741,78	25,482
741,96	24,502
742,14	24,304
742,32	22,138
742,50	23,725
742,68	25,481
742,86	23,916
743,04	22,843
743,21	25,805
743,39	25,575
743,57	24,632
743,75	23,620
743,93	23,831
744,11	22,785
744,29	23,709
744,47	23,015
744,65	23,937
744,83	23,393
745,01	23,389
745,19	25,735
745,37	26,863
745,55	25,089
745,73	24,917
745,91	23,322
746,09	25,274
746,27	23,204
746,45	23,166
746,62	23,493
746,80	24,256
746,98	23,544
747,16	23,232
747,34	23,233
747,52	22,365
747,70	24,683
747,88	23,709
748,06	24,137
748,24	24,959
748,42	26,108
748,60	23,652
748,78	23,650
748,95	26,013
749,13	27,245
749,31	22,851
749,49	24,926
749,67	23,078
749,85	26,366
750,03	25,291
750,21	24,121
750,39	24,259
750,57	26,851
750,74	24,517
750,92	24,633
751,10	25,047
751,28	23,787
751,46	21,348
751,64	26,667
751,82	24,958
752,00	25,638
752,17	25,819
752,35	22,585
752,53	23,153
752,71	25,133
752,89	23,529
753,07	23,737
753,25	25,797
753,43	23,761
753,60	26,808
753,78	22,307
753,96	27,255
754,14	25,035
754,32	23,771
754,50	25,047
754,68	24,340
754,85	24,948
755,03	25,109
755,21	25,879
755,39	25,487
755,57	24,738
755,75	23,914
755,92	24,281
756,10	25,653
756,28	26,533
756,46	23,862
756,64	23,514
756,82	25,406
756,99	24,102
757,17	24,753
757,35	23,087
757,53	27,458
757,71	26,192
757,89	23,915
758,06	25,469
758,24	25,857
758,42	24,232
758,60	25,175
758,78	24,289
758,95	24,800
759,13	27,172
759,31	24,635
759,49	23,603
759,67	25,015
759,84	25,255
760,02	23,819
760,20	22,936
760,38	26,437
760,56	22,588
760,73	26,348
760,91	24,789
761,09	25,607
761,27	24,215
761,45	24,326
761,62	24,802
761,80	23,806
761,98	24,603
762,16	24,776
762,33	23,492
762,51	26,743
762,69	25,855
762,87	24,194
763,05	26,724
763,22	22,665
763,40	24,428
763,58	23,989
763,76	24,898
763,93	26,108
764,11	24,891
764,29	24,019
764,47	24,542
764,64	26,580
764,82	26,092
765,00	24,897
765,18	21,746
765,35	25,555
765,53	24,964
765,71	23,537
765,89	22,943
766,06	24,804
766,24	24,106
766,42	24,367
766,60	22,792
766,77	25,166
766,95	22,810
767,13	25,319
767,30	23,788
767,48	24,397
767,66	22,707
767,84	23,396
768,01	23,987
768,19	24,999
768,37	25,054
768,54	23,100
768,72	27,065
768,90	24,889
769,08	25,354
769,25	25,812
769,43	23,730
769,61	21,915
769,78	23,740
769,96	23,449
770,14	24,238
770,31	25,821
770,49	26,375
770,67	26,743
770,85	24,763
771,02	24,435
771,20	22,349
771,38	25,165
771,55	24,416
771,73	24,196
771,91	25,646
772,08	26,457
772,26	23,674
772,44	26,549
772,61	23,750
772,79	23,367
772,97	24,786
773,14	23,686
773,32	25,183
773,50	22,860
773,67	24,478
773,85	23,825
774,03	24,760
774,20	23,917
774,38	25,674
774,56	23,504
774,73	23,174
774,91	22,397
775,09	23,857
775,26	25,293
775,44	25,460
775,61	24,813
775,79	21,628
775,97	25,613
776,14	24,344
776,32	23,574
776,50	24,790
776,67	23,935
776,85	22,276
777,03	22,112
777,20	25,075
777,38	26,007
777,55	24,346
777,73	23,110
777,91	22,914
778,08	24,420
778,26	24,083
778,43	24,382
778,61	21,990
778,79	24,168
778,96	21,550
779,14	23,038
779,32	23,666
779,49	23,991
779,67	25,980
779,84	23,667
780,02	26,672
780,20	22,747
780,37	24,200
780,55	17,836
780,72	28,258
780,90	25,867
781,07	25,152
781,25	24,409
781,43	23,336
781,60	24,935
781,78	27,003
781,95	26,106
782,13	25,134
782,30	26,855
782,48	26,484
782,66	24,179
782,83	23,853
783,01	28,565
783,18	25,979
783,36	25,699
783,53	24,723
783,71	23,707
783,89	24,831
784,06	24,308
784,24	23,686
784,41	26,248
784,59	24,921
784,76	23,760
784,94	24,893
785,11	24,215
785,29	23,196
785,46	25,961
785,64	23,664
785,82	24,777
785,99	24,571
786,17	25,638
786,34	22,545
786,52	25,478
786,69	27,323
786,87	23,913
787,04	23,112
787,22	22,787
787,39	25,729
787,57	24,006
787,74	23,749
787,92	29,483
788,09	26,500
788,27	23,915
788,44	23,307
788,62	25,781
788,79	24,557
788,97	26,470
789,14	25,322
789,32	26,120
789,49	24,693
789,67	24,693
789,84	23,054
790,02	28,269
790,19	24,632
790,37	22,582
790,54	25,698
790,72	27,201
790,89	27,513
791,07	26,844
791,24	21,475
791,42	26,664
791,59	24,471
791,77	25,055
791,94	25,048
792,12	23,603
792,29	23,769
792,47	23,938
792,64	27,640
792,81	26,181
792,99	26,124
793,16	25,643
793,34	25,693
793,51	22,935
793,69	25,542
793,86	23,862
794,04	23,744
794,21	29,029
794,39	23,896
794,56	22,638
794,73	24,058
794,91	26,393
795,08	23,858
795,26	24,002
795,43	24,932
795,61	29,081
795,78	27,460
795,95	25,990
796,13	23,978
796,30	27,412
796,48	22,606
796,65	26,641
796,83	26,130
797,00	25,660
797,17	24,025
797,35	25,509
797,52	26,607
797,70	27,195
797,87	27,549
798,04	23,016
798,22	27,296
798,39	25,877
798,57	25,641
798,74	25,893
798,91	20,622
799,09	26,774
799,26	26,181
799,44	28,536
799,61	21,527
799,78	27,243
799,96	29,606
800,13	24,220
800,31	24,419
800,48	25,022
800,65	30,415
800,83	22,688
801,00	23,742
801,17	25,209
801,35	26,542
801,52	26,453
801,70	26,337
801,87	23,665
802,04	29,422
802,22	24,742
802,39	24,991
802,56	29,501
802,74	27,877
802,91	25,450
803,08	20,554
803,26	25,983
803,43	29,074
803,61	23,992
803,78	27,205
803,95	23,763
804,13	29,997
804,30	27,815
804,47	27,641
804,65	25,213
804,82	28,108
804,99	26,540
805,17	24,849
805,34	31,087
805,51	27,726
805,69	23,495
805,86	22,647
806,03	28,400
806,21	25,170
806,38	27,459
806,55	27,752
806,72	29,651
806,90	28,834
807,07	26,101
807,24	25,634
807,42	26,771
807,59	27,222
807,76	22,722
807,94	25,587
808,11	28,906
808,28	29,037
808,45	25,375
808,63	25,717
808,80	25,951
808,97	30,178
809,15	23,403
809,32	29,531
809,49	23,208
809,67	25,249
809,84	29,883
810,01	27,360
810,18	34,702
810,36	29,229
810,53	27,166
810,70	28,556
810,87	28,526
811,05	27,757
811,22	25,997
811,39	24,158
811,57	29,385
811,74	31,038
811,91	23,456
812,08	25,762
812,26	28,388
812,43	21,164
812,60	30,128
812,77	25,438
812,95	29,419
813,12	30,359
813,29	23,318
813,46	30,012
813,64	28,334
813,81	29,351
813,98	25,655
814,15	26,981
814,32	32,559
814,50	28,295
814,67	28,502
814,84	30,201
815,01	28,655
815,19	19,700
815,36	23,098
815,53	25,978
815,70	25,087
815,87	28,274
816,05	24,786
816,22	28,487
816,39	30,298
816,56	30,096
816,74	26,426
816,91	25,618
817,08	35,417
817,25	29,928
817,42	26,192
817,60	25,951
817,77	26,434
817,94	28,230
818,11	28,753
818,28	28,995
818,45	34,618
818,63	26,631
818,80	28,334
818,97	27,340
819,14	35,733
819,31	31,986
819,49	28,379
819,66	24,900
819,83	32,663
820,00	33,826
820,17	27,130
820,34	28,789
820,52	33,664
820,69	28,850
820,86	28,113
821,03	25,650
821,20	35,912
821,37	29,844
821,55	19,430
821,72	23,946
821,89	29,640
822,06	31,251
822,23	23,465
822,40	26,328
822,57	28,515
822,75	30,967
822,92	22,490
823,09	28,619
823,26	32,312
823,43	32,272
823,60	31,588
823,77	24,712
823,94	35,137
824,12	32,904
824,29	23,447
824,46	23,583
824,63	38,503
824,80	35,620
824,97	26,104
825,14	25,581
825,31	29,859
825,49	29,881
825,66	27,587
825,83	25,486
826,00	27,619
826,17	43,553
826,34	27,978
826,51	20,706
826,68	29,287
826,85	29,793
827,02	29,047
827,20	21,041
827,37	28,141
827,54	29,643
827,71	30,147
827,88	29,714
828,05	32,821
828,22	24,410
828,39	35,006
828,56	33,336
828,73	31,796
828,90	30,073
829,07	30,720
829,25	30,991
829,42	27,811
829,59	24,405
829,76	27,623
829,93	24,817
830,10	29,714
830,27	31,775
830,44	28,492
830,61	24,604
830,78	36,521
830,95	30,341
831,12	26,018
831,29	23,009
831,46	23,471
831,63	29,861
831,80	24,303
831,97	26,681
832,14	30,055
832,31	41,221
832,48	25,408
832,65	25,073
832,83	26,000
833,00	25,201
833,17	28,679
833,34	30,060
833,51	30,814
833,68	32,302
833,85	34,848
834,02	24,215
834,19	30,395
834,36	35,175
834,53	20,132
834,70	26,958
834,87	38,205
835,04	29,121
835,21	30,031
835,38	25,992
835,55	27,031
835,72	41,510
835,89	26,469
836,06	29,408
836,23	40,842
836,40	24,816
836,57	27,247
836,74	36,420
836,91	34,656
837,08	41,052
837,25	30,951
837,42	24,579
837,59	29,147
837,76	32,806
837,93	24,594
838,09	27,015
838,26	28,776
838,43	40,483
838,60	31,211
838,77	28,581
838,94	38,136
839,11	26,497
839,28	22,840
839,45	27,960
839,62	29,208
839,79	24,997
839,96	28,172
840,13	33,525
840,30	27,513
840,47	21,580
840,64	26,876
840,81	34,522
840,98	19,562
841,15	30,557
841,32	24,131
841,48	37,480
841,65	33,863
841,82	25,934
841,99	28,105
842,16	21,955
842,33	31,461
842,50	29,454
842,67	22,396
842,84	26,419
843,01	32,792
843,18	28,593
843,35	19,646
843,52	18,699
843,68	38,029
843,85	37,314
844,02	31,006
844,19	29,000
844,36	43,788
844,53	22,642
844,70	33,006
844,87	30,185
845,04	30,956
845,21	21,280
845,37	26,363
845,54	23,670
845,71	25,134
845,88	44,025
846,05	26,447
846,22	20,486
846,39	36,925
846,56	35,749
846,72	27,047
846,89	32,134
847,06	47,978
847,23	37,463
847,40	19,814
847,57	20,666
847,74	28,584
847,90	38,509
848,07	28,047
848,24	27,981
848,41	32,859
848,58	33,116
848,75	33,962
848,92	25,238
849,08	31,212
849,25	29,003
849,42	26,542
849,59	36,911
849,76	32,827
849,93	23,379
850,09	32,090
850,26	29,630
850,43	42,603
850,60	32,553
850,77	23,201
850,94	33,369
851,10	39,795
851,27	28,694
851,44	21,305
851,61	21,578
851,78	51,416
851,95	36,905
852,11	25,021
852,28	39,294
852,45	34,099
852,62	44,230
852,79	37,360
852,95	26,806
853,12	37,742
853,29	33,581
853,46	27,763
853,63	38,319
853,79	39,323
853,96	31,531
854,13	49,801
854,30	26,609
854,46	49,969
854,63	36,556
854,80	36,177
854,97	30,960
855,14	40,407
855,30	40,759
855,47	21,765
855,64	26,397
855,81	41,223
855,97	36,603
856,14	33,455
856,31	29,419
856,48	51,780
856,65	46,211
856,81	31,445
856,98	31,643
857,15	23,454
857,32	37,223
857,48	17,976
857,65	51,963
857,82	37,818
857,99	40,356
858,15	26,098
858,32	29,876
858,49	44,120
858,65	48,217
858,82	36,645
858,99	35,961
859,16	41,541
859,32	45,648
859,49	28,315
859,66	33,380
859,83	26,352
859,99	27,333
860,16	37,538
860,33	32,706
860,49	35,913
860,66	35,934
860,83	38,410
861,00	31,480
861,16	61,466
861,33	34,664
861,50	22,070
861,66	21,950
861,83	55,792
862,00	22,399
862,16	32,378
862,33	32,720
862,50	65,662
862,67	34,440
862,83	24,748
863,00	37,386
863,17	52,631
863,33	32,479
863,50	8,308
863,67	25,150
863,83	51,737
864,00	50,431
864,17	21,290
864,33	34,907
864,50	47,169
864,67	42,616
864,83	23,508
865,00	41,456
865,17	30,324
865,33	44,158
865,50	20,680
865,67	29,515
865,83	33,724
866,00	51,768
866,17	38,869
866,33	45,998
866,50	51,487
866,66	49,425
866,83	28,090
867,00	31,816
867,16	46,553
867,33	65,625
867,50	1,297
867,66	10,859
867,83	46,145
868,00	45,666
868,16	29,514
868,33	31,392
868,49	31,032
868,66	54,635
868,83	34,297
868,99	45,306
869,16	59,217
869,32	53,788
869,49	37,416
869,66	26,392
869,82	53,869
869,99	83,417
870,15	9,300
870,32	50,714
870,49	81,810
870,65	100,898
870,82	40,948
870,98	9,383
871,15	64,203
871,32	26,127
871,48	-1,261
871,65	29,771
871,81	56,094
871,98	22,646
872,15	13,003
872,31	14,913
872,48	79,439
872,64	65,289
872,81	12,049
872,97	34,265
873,14	73,032
873,31	48,214
873,47	28,449
873,64	48,409
873,80	93,491
873,97	94,263
874,13	14,352
874,30	39,642
874,46	44,016
874,63	47,427
874,80	40,531
874,96	3,271
875,13	46,074
875,29	27,317
875,46	39,420
875,62	40,511
875,79	108,277
875,95	38,591
876,12	7,803
876,28	2,327
876,45	84,158
876,61	41,895
876,78	50,362
876,94	11,962
877,11	33,723
877,27	50,065
877,44	19,942
877,60	21,995
877,77	80,713
877,94	89,195
878,10	13,675
878,27	64,394
878,43	93,242
878,60	48,862
878,76	54,743
878,93	24,009
879,09	109,691
879,26	58,794
879,42	73,317
879,58	24,198
879,75	91,551
879,91	78,288
880,08	-33,882
880,24	26,559
880,41	45,168
880,57	66,036
880,74	14,769
880,90	87,592
881,07	64,156
881,23	51,503
881,40	67,203
881,56	47,520
881,73	102,698
881,89	67,916
882,06	-55,807
882,22	169,709
882,38	124,241
882,55	145,934
882,71	29,897
882,88	23,805
883,04	135,180
883,21	149,887
883,37	73,693
883,54	20,326
883,70	185,369
883,86	86,169
884,03	56,296
884,19	30,519
884,36	-32,632
884,52	116,498
884,69	-4,885
884,85	54,515
885,01	262,333
885,18	110,902
885,34	82,120
885,51	-10,016
885,67	97,749
>>>>> Data<<<<< Espectral Procesado Extremo
