Fichero De Datos De SpectraSuite
++++++++++++++++++++++++++++++++++++
Fecha: Wed Apr 22 11:44:53 CEST 2009
Usuario: evoflor
Presente Oscuro Del Espectro: Sí
La Referencia de Presente Del Espectro De: Sí
Muestreados de los componentes de Número de espectros: 1
Espectrómetros: USB4F02353
Tiempo de integración (usec): 500000 (USB4F02353)
Promedio de Espectros Hechos un: 5 (USB4F02353)
El Alisar Del Furgón: 0 (USB4F02353)
Párrafo de de Corregir del la del del de Eléctrica del obscuridad: Sí (USB4F02353)
Estrobo/Lámpara Permitido: No (USB4F02353)
Correct for Detector Non-linearity: No (USB4F02353)
Párrafo de de Corregir del la del del de Externa del luz: No (USB4F02353)
Procesado del espectro de Número de pixeles en: 3648
>>>>> Comienza Data<<<<< Espectral Procesado Del EL
177,79	245,832
178,00	245,832
178,22	245,832
178,44	1274,396
178,66	-152,440
178,88	374,821
179,09	-387,362
179,31	228,748
179,53	390,495
179,75	-48,404
179,96	707,155
180,18	-197,015
180,40	387,357
180,62	200,875
180,83	-270,950
181,05	-1340,610
181,27	-121630,000
181,49	40,804
181,70	156,269
181,92	448,376
182,14	390,753
182,36	49,656
182,58	-46,300
182,79	832,277
183,01	37,065
183,23	179,125
183,45	27,292
183,66	-143,938
183,88	662,529
184,10	-2309,636
184,32	158,490
184,53	122,442
184,75	-207,925
184,97	114,982
185,18	-171,109
185,40	-766,490
185,62	96,561
185,84	-60,633
186,05	179,062
186,27	-110,025
186,49	2947,308
186,71	54,579
186,92	119,867
187,14	-128,573
187,36	108,941
187,58	87,733
187,79	-35,760
188,01	353,524
188,23	-148,665
188,45	145,932
188,66	-244,509
188,88	-2178,727
189,10	-1801,300
189,31	-7,901
189,53	-62,172
189,75	251,886
189,97	180,500
190,18	-184,850
190,40	397,824
190,62	-177,154
190,83	-86,051
191,05	167,615
191,27	182,943
191,49	358,985
191,70	-268,894
191,92	-1038,390
192,14	0,684
192,35	372,759
192,57	2163,714
192,79	-53,683
193,01	129,209
193,22	105,541
193,44	-69,334
193,66	125,845
193,87	23,405
194,09	5,734
194,31	139,680
194,53	718,392
194,74	19,081
194,96	58,862
195,18	163,199
195,39	-263,931
195,61	-84,339
195,83	-354,413
196,04	160,672
196,26	175,729
196,48	62,681
196,70	127,296
196,91	-8,245
197,13	184,886
197,35	-71,113
197,56	602,260
197,78	1626,343
198,00	19,790
198,21	358,883
198,43	-1120,523
198,65	122,853
198,86	-44,856
199,08	139,115
199,30	164,231
199,51	-375,668
199,73	177,361
199,95	327,797
200,16	550,885
200,38	383,203
200,60	92,625
200,81	445,460
201,03	85,951
201,25	-1891,300
201,46	173,980
201,68	160,443
201,90	3071,136
202,11	-24,542
202,33	84,255
202,55	215,375
202,76	-21,773
202,98	-59,129
203,20	-416,010
203,41	-725,421
203,63	104,136
203,85	-134230,000
204,06	148,561
204,28	-0,313
204,50	133,590
204,71	203,763
204,93	-711,760
205,15	141,355
205,36	-96,616
205,58	223,090
205,80	-61,413
206,01	100,195
206,23	101,806
206,45	265,896
206,66	98,707
206,88	-66,773
207,10	24,841
207,31	308,914
207,53	-40,771
207,75	15,227
207,96	471,119
208,18	-202,952
208,39	127,099
208,61	4298,000
208,83	-414,241
209,04	227,687
209,26	-548,065
209,48	390,318
209,69	216,500
209,91	635,912
210,13	62,142
210,34	-25,835
210,56	128,683
210,77	-2084,488
210,99	167,259
211,21	6254,706
211,42	-107,927
211,64	-6,034
211,86	346,367
212,07	60,014
212,29	177,969
212,50	130,861
212,72	135,500
212,94	165,613
213,15	67,600
213,37	143,098
213,58	-143,969
213,80	1473,929
214,02	14407,647
214,23	246,588
214,45	274,852
214,67	-1746,707
214,88	-374,933
215,10	-285,440
215,31	179,105
215,53	-26,295
215,75	200,574
215,96	1538,075
216,18	382,113
216,39	157,900
216,61	338,275
216,83	305,937
217,04	1477,865
217,26	27,790
217,47	95,144
217,69	280,456
217,91	87,809
218,12	-73030,000
218,34	90,975
218,55	188,939
218,77	80,593
218,99	124,579
219,20	-251,644
219,42	174,436
219,63	-171,066
219,85	12,302
220,06	38,577
220,28	140,933
220,50	135,563
220,71	100,176
220,93	2396,792
221,14	-1648,300
221,36	-43,270
221,58	39,036
221,79	163,753
222,01	1087,328
222,22	664,013
222,44	982,360
222,65	116,771
222,87	133,077
223,09	110,725
223,30	90,817
223,52	145,005
223,73	173,582
223,95	24,268
224,16	336,144
224,38	527,085
224,60	99,479
224,81	127,680
225,03	74,482
225,24	62,123
225,46	-55,100
225,67	35,093
225,89	72,029
226,10	575,090
226,32	505,040
226,54	55,298
226,75	45,562
226,97	154,979
227,18	111,142
227,40	142,278
227,61	23,299
227,83	45,199
228,04	126,332
228,26	65,646
228,47	38,522
228,69	199,311
228,91	93,972
229,12	37,539
229,34	22,003
229,55	38,445
229,77	26,402
229,98	-11,101
230,20	88,070
230,41	-48,756
230,63	75,910
230,84	2,713
231,06	8,094
231,27	21,753
231,49	55,892
231,71	14,442
231,92	15,804
232,14	9,242
232,35	51,876
232,57	11,127
232,78	20,647
233,00	31,834
233,21	22,301
233,43	0,281
233,64	-0,962
233,86	41,629
234,07	16,846
234,29	27,706
234,50	17,328
234,72	37,877
234,93	-6,748
235,15	20,864
235,36	17,908
235,58	31,933
235,79	34,536
236,01	15,642
236,22	7,053
236,44	32,403
236,65	14,289
236,87	27,556
237,08	7,450
237,30	-5,993
237,51	21,648
237,73	-9,408
237,94	13,239
238,16	14,000
238,37	15,817
238,59	4,456
238,80	12,265
239,02	6,759
239,23	22,162
239,45	-2,547
239,66	16,666
239,88	23,896
240,09	23,812
240,31	2,364
240,52	9,498
240,74	3,259
240,95	4,827
241,17	12,790
241,38	-3,458
241,60	11,021
241,81	23,745
242,03	9,746
242,24	8,628
242,46	19,343
242,67	2,837
242,89	7,822
243,10	10,026
243,32	10,654
243,53	18,020
243,75	0,892
243,96	9,818
244,18	12,093
244,39	9,549
244,60	2,251
244,82	-0,058
245,03	19,288
245,25	4,697
245,46	21,641
245,68	2,602
245,89	22,313
246,11	16,398
246,32	12,071
246,54	6,693
246,75	15,366
246,97	1,061
247,18	20,700
247,39	0,325
247,61	5,625
247,82	7,104
248,04	6,893
248,25	4,687
248,47	12,567
248,68	11,126
248,90	4,406
249,11	8,297
249,33	17,580
249,54	13,458
249,75	7,899
249,97	3,885
250,18	10,726
250,40	13,036
250,61	-3,133
250,83	2,328
251,04	5,196
251,25	6,551
251,47	-0,798
251,68	7,761
251,90	2,641
252,11	8,422
252,33	2,271
252,54	5,856
252,76	1,896
252,97	0,293
253,18	1,611
253,40	-0,773
253,61	-0,991
253,83	9,566
254,04	7,776
254,25	5,163
254,47	2,649
254,68	6,053
254,90	6,043
255,11	6,502
255,33	3,614
255,54	-1,026
255,75	3,183
255,97	3,727
256,18	1,371
256,40	4,563
256,61	5,328
256,82	0,740
257,04	7,917
257,25	-1,496
257,47	10,459
257,68	-0,330
257,89	10,037
258,11	8,743
258,32	0,884
258,54	7,757
258,75	9,653
258,96	7,578
259,18	8,686
259,39	5,891
259,61	2,219
259,82	5,469
260,03	3,613
260,25	4,296
260,46	2,504
260,68	2,341
260,89	3,926
261,10	4,500
261,32	2,869
261,53	2,231
261,75	6,918
261,96	-1,034
262,17	8,589
262,39	10,921
262,60	2,935
262,81	-0,451
263,03	8,887
263,24	4,711
263,46	1,728
263,67	0,962
263,88	3,234
264,10	5,277
264,31	-2,026
264,52	4,888
264,74	5,619
264,95	3,989
265,17	4,905
265,38	3,425
265,59	7,713
265,81	6,833
266,02	0,882
266,23	0,734
266,45	6,056
266,66	7,541
266,87	4,662
267,09	1,915
267,30	7,015
267,52	7,018
267,73	1,782
267,94	4,243
268,16	5,304
268,37	1,397
268,58	5,497
268,80	2,745
269,01	6,701
269,22	8,272
269,44	8,115
269,65	0,887
269,86	0,918
270,08	6,046
270,29	0,876
270,50	1,855
270,72	7,417
270,93	0,459
271,14	-2,223
271,36	-3,370
271,57	4,832
271,78	5,060
272,00	6,069
272,21	4,622
272,42	6,251
272,64	8,288
272,85	0,848
273,06	-1,280
273,28	5,555
273,49	5,926
273,70	6,987
273,92	6,508
274,13	3,731
274,34	5,197
274,56	3,921
274,77	4,242
274,98	4,874
275,20	6,209
275,41	6,780
275,62	5,149
275,84	3,479
276,05	11,637
276,26	0,992
276,47	0,465
276,69	8,540
276,90	4,710
277,11	0,979
277,33	3,300
277,54	5,017
277,75	5,227
277,97	-0,098
278,18	-0,288
278,39	7,103
278,61	3,741
278,82	7,131
279,03	5,406
279,24	3,166
279,46	2,664
279,67	2,367
279,88	2,831
280,10	7,570
280,31	1,138
280,52	1,458
280,73	0,631
280,95	3,959
281,16	7,025
281,37	5,880
281,59	4,013
281,80	7,043
282,01	3,253
282,22	0,067
282,44	0,701
282,65	9,533
282,86	3,733
283,08	0,948
283,29	4,408
283,50	2,280
283,71	6,300
283,93	3,195
284,14	6,907
284,35	4,259
284,56	2,555
284,78	0,891
284,99	2,599
285,20	6,888
285,42	3,681
285,63	2,340
285,84	-1,226
286,05	1,617
286,27	4,554
286,48	-0,144
286,69	2,226
286,90	-0,490
287,12	1,352
287,33	-1,128
287,54	2,752
287,75	7,265
287,97	6,920
288,18	2,009
288,39	-0,748
288,60	4,556
288,82	3,951
289,03	2,752
289,24	3,833
289,45	9,450
289,67	4,937
289,88	2,361
290,09	5,021
290,30	6,207
290,52	3,444
290,73	1,565
290,94	0,499
291,15	3,182
291,37	6,947
291,58	3,930
291,79	0,831
292,00	4,534
292,21	3,487
292,43	3,976
292,64	1,268
292,85	2,227
293,06	2,649
293,28	0,714
293,49	2,854
293,70	4,128
293,91	3,441
294,12	3,232
294,34	1,571
294,55	5,949
294,76	2,373
294,97	2,317
295,19	0,460
295,40	4,336
295,61	5,422
295,82	1,447
296,03	3,091
296,25	2,990
296,46	1,486
296,67	-0,173
296,88	0,560
297,09	5,507
297,31	2,849
297,52	3,412
297,73	1,869
297,94	4,714
298,15	6,962
298,37	1,942
298,58	5,737
298,79	5,455
299,00	-0,501
299,21	1,870
299,43	2,751
299,64	7,877
299,85	6,910
300,06	2,551
300,27	2,481
300,49	9,348
300,70	3,162
300,91	1,425
301,12	2,962
301,33	6,988
301,54	1,071
301,76	3,055
301,97	0,151
302,18	2,417
302,39	4,473
302,60	12,330
302,82	1,747
303,03	7,978
303,24	3,307
303,45	4,114
303,66	2,224
303,87	1,581
304,09	5,409
304,30	0,708
304,51	0,700
304,72	2,950
304,93	6,300
305,14	2,077
305,36	0,931
305,57	2,746
305,78	2,665
305,99	4,633
306,20	1,418
306,41	1,541
306,62	2,541
306,84	0,050
307,05	0,273
307,26	3,152
307,47	4,791
307,68	3,502
307,89	3,691
308,11	6,175
308,32	4,416
308,53	1,502
308,74	0,545
308,95	1,368
309,16	5,607
309,37	5,447
309,59	-0,418
309,80	2,206
310,01	3,043
310,22	3,262
310,43	1,606
310,64	5,160
310,85	4,116
311,06	0,844
311,28	2,349
311,49	3,417
311,70	6,943
311,91	1,230
312,12	4,197
312,33	2,919
312,54	3,726
312,75	3,045
312,97	1,240
313,18	5,136
313,39	2,827
313,60	3,026
313,81	2,039
314,02	3,255
314,23	4,280
314,44	0,172
314,65	2,832
314,87	2,060
315,08	1,035
315,29	5,797
315,50	3,119
315,71	5,832
315,92	5,041
316,13	3,151
316,34	3,601
316,55	4,207
316,77	0,811
316,98	1,967
317,19	2,275
317,40	2,475
317,61	6,476
317,82	0,890
318,03	1,392
318,24	0,329
318,45	2,521
318,66	1,607
318,87	0,199
319,09	2,418
319,30	3,303
319,51	2,560
319,72	5,279
319,93	4,991
320,14	4,799
320,35	4,003
320,56	1,319
320,77	0,815
320,98	6,338
321,19	5,305
321,40	0,521
321,62	5,214
321,83	2,596
322,04	4,820
322,25	5,400
322,46	6,257
322,67	4,872
322,88	3,390
323,09	2,487
323,30	6,013
323,51	3,481
323,72	4,213
323,93	2,758
324,14	2,616
324,35	1,613
324,56	0,863
324,77	2,768
324,99	0,983
325,20	0,839
325,41	5,746
325,62	5,665
325,83	0,612
326,04	3,951
326,25	5,077
326,46	0,191
326,67	4,035
326,88	3,887
327,09	2,111
327,30	0,721
327,51	4,592
327,72	5,538
327,93	5,408
328,14	-0,331
328,35	3,758
328,56	1,705
328,77	4,281
328,98	3,070
329,19	3,496
329,40	5,698
329,61	1,466
329,82	-0,900
330,04	4,458
330,25	1,502
330,46	4,626
330,67	2,203
330,88	3,969
331,09	2,916
331,30	3,877
331,51	3,604
331,72	4,811
331,93	5,756
332,14	1,624
332,35	5,675
332,56	2,985
332,77	6,525
332,98	-0,101
333,19	2,028
333,40	3,891
333,61	2,819
333,82	3,250
334,03	5,021
334,24	4,768
334,45	4,615
334,66	5,879
334,87	4,246
335,08	2,283
335,29	2,018
335,50	0,298
335,71	1,446
335,92	5,110
336,13	4,482
336,34	1,454
336,55	3,000
336,76	4,674
336,97	4,327
337,18	1,058
337,39	4,706
337,60	5,470
337,81	3,367
338,02	0,415
338,23	1,872
338,44	1,868
338,65	3,717
338,86	4,400
339,07	0,004
339,28	6,316
339,49	3,611
339,70	0,871
339,91	2,299
340,11	4,355
340,32	2,121
340,53	2,067
340,74	0,004
340,95	1,534
341,16	4,182
341,37	1,607
341,58	2,135
341,79	0,141
342,00	7,143
342,21	3,440
342,42	0,603
342,63	3,274
342,84	2,127
343,05	2,715
343,26	6,354
343,47	4,154
343,68	2,317
343,89	3,732
344,10	3,705
344,31	6,570
344,52	5,909
344,73	1,528
344,94	1,918
345,14	2,761
345,35	8,814
345,56	1,938
345,77	5,616
345,98	5,958
346,19	1,998
346,40	3,843
346,61	3,236
346,82	2,510
347,03	2,538
347,24	3,958
347,45	0,956
347,66	7,254
347,87	0,731
348,08	4,335
348,28	1,601
348,49	3,595
348,70	7,937
348,91	3,466
349,12	-0,623
349,33	14,062
349,54	3,351
349,75	4,155
349,96	3,663
350,17	2,491
350,38	1,992
350,59	5,827
350,80	1,369
351,00	6,197
351,21	6,787
351,42	4,720
351,63	-2,644
351,84	2,790
352,05	4,860
352,26	2,610
352,47	3,917
352,68	5,245
352,89	6,667
353,09	5,477
353,30	-0,537
353,51	3,030
353,72	6,580
353,93	5,264
354,14	1,946
354,35	1,747
354,56	5,899
354,77	3,979
354,98	0,273
355,18	4,794
355,39	8,789
355,60	2,169
355,81	2,762
356,02	5,751
356,23	2,843
356,44	2,073
356,65	5,686
356,85	6,320
357,06	6,258
357,27	2,002
357,48	1,594
357,69	6,577
357,90	7,741
358,11	-0,054
358,32	3,793
358,52	9,133
358,73	1,363
358,94	-1,432
359,15	5,420
359,36	5,686
359,57	3,190
359,78	5,391
359,98	1,956
360,19	-0,899
360,40	4,910
360,61	7,679
360,82	2,636
361,03	8,045
361,24	4,766
361,44	2,787
361,65	6,514
361,86	0,772
362,07	2,126
362,28	2,237
362,49	0,004
362,70	6,877
362,90	2,899
363,11	1,488
363,32	2,994
363,53	3,993
363,74	4,975
363,95	5,529
364,15	5,190
364,36	4,943
364,57	5,758
364,78	3,184
364,99	1,909
365,20	7,086
365,40	7,891
365,61	1,363
365,82	8,105
366,03	4,273
366,24	4,226
366,45	2,006
366,65	1,357
366,86	1,649
367,07	5,212
367,28	4,923
367,49	4,428
367,69	3,536
367,90	4,557
368,11	3,814
368,32	3,340
368,53	4,265
368,73	7,422
368,94	3,395
369,15	3,175
369,36	6,412
369,57	7,602
369,78	1,534
369,98	8,624
370,19	7,242
370,40	4,050
370,61	4,107
370,82	4,412
371,02	5,691
371,23	9,388
371,44	2,404
371,65	4,469
371,85	6,597
372,06	3,161
372,27	3,976
372,48	4,479
372,69	3,664
372,89	5,121
373,10	2,810
373,31	3,662
373,52	6,345
373,73	6,911
373,93	6,144
374,14	3,168
374,35	4,889
374,56	7,580
374,76	2,676
374,97	1,883
375,18	7,987
375,39	7,090
375,60	7,389
375,80	4,078
376,01	3,979
376,22	1,769
376,43	3,668
376,63	5,418
376,84	7,570
377,05	5,454
377,26	4,386
377,46	1,579
377,67	6,804
377,88	6,146
378,09	5,403
378,29	2,151
378,50	7,092
378,71	7,254
378,92	5,164
379,12	5,772
379,33	2,818
379,54	7,010
379,75	7,564
379,95	3,670
380,16	6,986
380,37	8,958
380,58	4,063
380,78	7,386
380,99	2,639
381,20	4,644
381,41	5,601
381,61	8,837
381,82	4,626
382,03	8,668
382,24	6,413
382,44	9,032
382,65	8,366
382,86	3,850
383,06	3,485
383,27	5,715
383,48	7,486
383,69	8,260
383,89	7,641
384,10	7,497
384,31	3,064
384,51	9,623
384,72	5,010
384,93	4,477
385,14	6,988
385,34	8,154
385,55	3,671
385,76	1,574
385,96	9,868
386,17	5,880
386,38	5,723
386,59	0,135
386,79	8,893
387,00	8,885
387,21	9,651
387,41	7,415
387,62	2,869
387,83	11,750
388,03	8,632
388,24	7,034
388,45	7,201
388,66	7,604
388,86	6,918
389,07	7,044
389,28	9,403
389,48	8,280
389,69	4,776
389,90	7,380
390,10	10,062
390,31	11,609
390,52	4,950
390,72	4,279
390,93	8,855
391,14	7,857
391,34	9,486
391,55	10,944
391,76	11,620
391,96	9,020
392,17	6,143
392,38	11,374
392,58	10,991
392,79	10,114
393,00	6,647
393,20	7,533
393,41	10,433
393,62	11,764
393,82	7,705
394,03	9,785
394,24	7,949
394,44	12,588
394,65	11,478
394,86	6,644
395,06	13,079
395,27	8,187
395,48	7,121
395,68	11,059
395,89	10,847
396,10	10,827
396,30	8,523
396,51	6,461
396,72	9,445
396,92	8,676
397,13	10,232
397,34	8,699
397,54	16,622
397,75	7,794
397,95	7,208
398,16	11,572
398,37	9,093
398,57	10,254
398,78	10,608
398,99	10,602
399,19	13,148
399,40	13,845
399,60	9,508
399,81	10,571
400,02	12,168
400,22	16,701
400,43	10,829
400,64	12,955
400,84	7,016
401,05	13,730
401,25	12,869
401,46	15,502
401,67	11,467
401,87	11,256
402,08	7,160
402,29	10,973
402,49	12,362
402,70	15,519
402,90	7,445
403,11	11,642
403,32	11,762
403,52	10,722
403,73	13,057
403,93	14,894
404,14	15,049
404,35	11,824
404,55	8,070
404,76	13,474
404,96	12,446
405,17	13,963
405,38	15,331
405,58	10,550
405,79	14,956
405,99	14,013
406,20	10,542
406,40	10,145
406,61	16,499
406,82	10,318
407,02	14,347
407,23	9,444
407,43	13,468
407,64	8,544
407,85	13,505
408,05	5,977
408,26	23,833
408,46	15,476
408,67	11,101
408,87	11,588
409,08	13,637
409,29	15,905
409,49	18,509
409,70	14,354
409,90	17,386
410,11	13,657
410,31	18,520
410,52	13,888
410,72	9,730
410,93	17,040
411,14	10,392
411,34	13,918
411,55	19,740
411,75	18,502
411,96	12,354
412,16	14,152
412,37	13,891
412,57	17,956
412,78	14,332
412,99	14,336
413,19	14,191
413,40	15,258
413,60	10,764
413,81	12,253
414,01	13,139
414,22	13,395
414,42	12,427
414,63	11,331
414,83	17,105
415,04	17,678
415,24	18,564
415,45	11,721
415,65	14,753
415,86	11,984
416,07	18,282
416,27	16,540
416,48	22,019
416,68	20,049
416,89	12,799
417,09	14,800
417,30	17,330
417,50	14,307
417,71	19,970
417,91	18,761
418,12	13,389
418,32	13,660
418,53	17,075
418,73	15,669
418,94	14,022
419,14	17,369
419,35	10,883
419,55	17,018
419,76	18,829
419,96	15,304
420,17	10,771
420,37	17,872
420,58	18,172
420,78	17,249
420,99	17,350
421,19	17,775
421,40	20,284
421,60	19,862
421,81	13,768
422,01	14,706
422,22	16,637
422,42	20,215
422,63	16,964
422,83	15,347
423,04	20,454
423,24	20,894
423,45	15,803
423,65	19,150
423,86	20,507
424,06	18,070
424,27	12,944
424,47	11,975
424,67	14,582
424,88	15,446
425,08	15,784
425,29	21,852
425,49	15,796
425,70	8,960
425,90	17,381
426,11	14,683
426,31	17,808
426,52	15,963
426,72	13,827
426,93	19,497
427,13	21,659
427,33	17,394
427,54	19,978
427,74	21,935
427,95	24,132
428,15	14,424
428,36	16,745
428,56	13,006
428,77	21,410
428,97	17,680
429,18	16,946
429,38	13,139
429,58	21,055
429,79	21,125
429,99	14,834
430,20	11,608
430,40	20,335
430,61	14,868
430,81	14,831
431,01	18,087
431,22	21,594
431,42	20,038
431,63	15,741
431,83	16,881
432,04	15,836
432,24	19,142
432,44	16,655
432,65	17,938
432,85	17,717
433,06	16,425
433,26	17,159
433,47	12,026
433,67	17,649
433,87	17,967
434,08	15,423
434,28	18,450
434,49	15,218
434,69	20,370
434,89	15,748
435,10	18,067
435,30	18,954
435,51	14,332
435,71	14,286
435,91	14,813
436,12	18,645
436,32	16,752
436,53	18,073
436,73	14,307
436,93	19,024
437,14	19,879
437,34	19,719
437,55	15,498
437,75	17,583
437,95	17,890
438,16	17,029
438,36	15,617
438,57	17,353
438,77	17,150
438,97	21,684
439,18	20,991
439,38	17,186
439,58	13,501
439,79	20,247
439,99	16,720
440,20	22,306
440,40	22,232
440,60	14,352
440,81	21,836
441,01	16,871
441,21	23,695
441,42	21,133
441,62	22,841
441,83	21,772
442,03	16,245
442,23	21,311
442,44	19,316
442,64	19,389
442,84	14,779
443,05	17,215
443,25	16,358
443,45	20,353
443,66	21,766
443,86	17,137
444,06	19,275
444,27	17,949
444,47	19,433
444,67	13,692
444,88	17,162
445,08	18,106
445,28	24,831
445,49	17,053
445,69	15,992
445,90	20,910
446,10	24,324
446,30	20,683
446,51	19,287
446,71	21,015
446,91	25,598
447,12	25,946
447,32	16,877
447,52	19,106
447,72	21,281
447,93	21,314
448,13	15,208
448,33	27,162
448,54	22,065
448,74	16,932
448,94	17,872
449,15	23,280
449,35	23,021
449,55	17,818
449,76	26,062
449,96	19,165
450,16	19,991
450,37	17,551
450,57	23,540
450,77	16,574
450,98	19,453
451,18	22,375
451,38	19,892
451,58	24,442
451,79	20,882
451,99	22,877
452,19	17,855
452,40	20,601
452,60	17,672
452,80	22,103
453,00	19,896
453,21	22,468
453,41	20,842
453,61	18,166
453,82	25,026
454,02	16,572
454,22	24,501
454,42	24,052
454,63	22,922
454,83	21,635
455,03	26,010
455,24	22,241
455,44	20,623
455,64	21,697
455,84	19,700
456,05	17,654
456,25	19,313
456,45	21,878
456,65	22,800
456,86	24,527
457,06	23,267
457,26	26,188
457,47	25,109
457,67	23,893
457,87	17,457
458,07	20,364
458,28	23,143
458,48	23,585
458,68	16,942
458,88	25,800
459,09	22,548
459,29	26,094
459,49	22,880
459,69	20,211
459,90	28,315
460,10	24,352
460,30	21,260
460,50	21,360
460,71	22,939
460,91	21,233
461,11	23,884
461,31	19,885
461,52	25,957
461,72	21,022
461,92	23,948
462,12	31,893
462,32	21,380
462,53	25,690
462,73	20,074
462,93	28,123
463,13	24,938
463,34	20,059
463,54	20,809
463,74	27,895
463,94	24,724
464,14	25,070
464,35	21,656
464,55	27,420
464,75	30,589
464,95	29,168
465,16	19,826
465,36	24,282
465,56	22,545
465,76	20,089
465,96	19,923
466,17	23,418
466,37	22,712
466,57	25,664
466,77	24,861
466,97	23,430
467,18	28,770
467,38	23,457
467,58	28,551
467,78	30,017
467,98	28,321
468,19	26,483
468,39	23,104
468,59	26,883
468,79	28,263
468,99	21,905
469,19	21,119
469,40	29,735
469,60	17,993
469,80	20,588
470,00	28,252
470,20	26,084
470,41	23,094
470,61	27,691
470,81	26,277
471,01	23,137
471,21	23,366
471,41	24,252
471,62	27,567
471,82	20,783
472,02	24,858
472,22	25,173
472,42	23,771
472,62	25,701
472,83	23,738
473,03	30,633
473,23	20,567
473,43	30,682
473,63	30,330
473,83	26,299
474,03	23,508
474,24	27,123
474,44	25,285
474,64	23,818
474,84	24,889
475,04	26,228
475,24	25,206
475,45	23,395
475,65	23,984
475,85	27,798
476,05	21,089
476,25	22,154
476,45	27,538
476,65	29,547
476,85	26,760
477,06	26,550
477,26	24,395
477,46	23,888
477,66	25,802
477,86	25,316
478,06	22,724
478,26	31,070
478,46	22,821
478,67	28,325
478,87	25,191
479,07	22,542
479,27	30,651
479,47	22,856
479,67	22,640
479,87	22,373
480,07	25,680
480,28	23,201
480,48	21,681
480,68	28,323
480,88	28,666
481,08	28,531
481,28	28,717
481,48	26,307
481,68	24,595
481,88	22,785
482,08	21,485
482,29	28,595
482,49	23,827
482,69	26,920
482,89	25,376
483,09	26,929
483,29	23,101
483,49	22,934
483,69	26,652
483,89	25,866
484,09	23,258
484,29	23,166
484,50	26,686
484,70	26,617
484,90	27,025
485,10	25,234
485,30	27,261
485,50	27,549
485,70	24,854
485,90	23,369
486,10	22,027
486,30	25,009
486,50	25,325
486,70	24,701
486,90	24,269
487,10	29,329
487,30	22,059
487,51	26,338
487,71	21,715
487,91	22,193
488,11	26,748
488,31	22,538
488,51	24,943
488,71	23,113
488,91	27,283
489,11	20,605
489,31	26,435
489,51	22,208
489,71	25,195
489,91	24,043
490,11	23,846
490,31	23,928
490,51	26,159
490,71	24,837
490,91	24,628
491,11	23,765
491,31	26,378
491,51	21,507
491,72	24,952
491,92	27,506
492,12	27,129
492,32	28,592
492,52	27,123
492,72	28,084
492,92	26,792
493,12	26,214
493,32	25,066
493,52	20,027
493,72	27,696
493,92	27,532
494,12	28,028
494,32	27,444
494,52	25,566
494,72	27,077
494,92	24,645
495,12	29,807
495,32	29,969
495,52	24,863
495,72	28,226
495,92	30,688
496,12	27,489
496,32	25,103
496,52	25,148
496,72	26,284
496,92	28,396
497,12	26,396
497,32	28,566
497,52	28,576
497,72	31,450
497,92	28,132
498,12	24,312
498,32	25,165
498,52	26,461
498,72	26,790
498,92	26,167
499,12	29,940
499,32	25,466
499,52	28,682
499,72	26,275
499,92	28,928
500,12	29,937
500,32	29,185
500,52	25,662
500,72	32,818
500,91	31,545
501,11	28,823
501,31	26,196
501,51	31,268
501,71	29,018
501,91	29,599
502,11	25,492
502,31	30,322
502,51	28,946
502,71	25,952
502,91	28,122
503,11	26,615
503,31	29,320
503,51	26,873
503,71	29,002
503,91	30,882
504,11	28,161
504,31	27,926
504,51	29,373
504,71	30,674
504,91	30,235
505,10	27,397
505,30	28,624
505,50	27,536
505,70	27,810
505,90	28,673
506,10	24,970
506,30	27,336
506,50	30,175
506,70	31,545
506,90	29,167
507,10	27,613
507,30	30,535
507,50	28,712
507,70	29,007
507,89	29,193
508,09	30,911
508,29	27,623
508,49	29,537
508,69	27,203
508,89	28,934
509,09	26,795
509,29	28,499
509,49	31,833
509,69	32,655
509,89	26,668
510,09	27,950
510,28	29,919
510,48	29,286
510,68	27,846
510,88	28,023
511,08	27,728
511,28	30,690
511,48	29,202
511,68	26,910
511,88	24,162
512,07	29,197
512,27	29,393
512,47	30,184
512,67	26,352
512,87	26,557
513,07	29,677
513,27	27,594
513,47	29,317
513,67	27,882
513,86	30,136
514,06	29,016
514,26	28,255
514,46	30,661
514,66	27,333
514,86	27,259
515,06	33,727
515,26	29,436
515,45	30,774
515,65	26,294
515,85	28,886
516,05	25,348
516,25	27,621
516,45	28,851
516,65	26,126
516,84	30,899
517,04	32,564
517,24	28,579
517,44	31,581
517,64	29,844
517,84	29,169
518,04	29,257
518,23	30,777
518,43	34,643
518,63	26,025
518,83	25,201
519,03	27,370
519,23	27,925
519,42	28,276
519,62	28,915
519,82	27,142
520,02	30,388
520,22	26,592
520,42	26,017
520,61	30,506
520,81	29,346
521,01	30,801
521,21	28,087
521,41	29,307
521,61	32,280
521,80	27,625
522,00	28,804
522,20	29,492
522,40	33,321
522,60	29,868
522,79	26,515
522,99	30,377
523,19	26,597
523,39	27,946
523,59	27,741
523,78	30,938
523,98	25,564
524,18	28,083
524,38	27,708
524,58	28,618
524,77	30,840
524,97	28,183
525,17	28,070
525,37	28,370
525,57	31,902
525,76	29,173
525,96	27,514
526,16	28,558
526,36	29,214
526,56	27,493
526,75	27,246
526,95	31,510
527,15	28,935
527,35	27,654
527,55	28,547
527,74	31,845
527,94	29,533
528,14	26,153
528,34	29,618
528,53	25,821
528,73	30,823
528,93	28,777
529,13	26,639
529,32	28,270
529,52	28,271
529,72	28,443
529,92	26,676
530,12	28,914
530,31	24,931
530,51	28,143
530,71	29,952
530,91	28,011
531,10	23,991
531,30	26,001
531,50	26,437
531,70	29,392
531,89	28,368
532,09	27,501
532,29	28,056
532,49	30,637
532,68	28,039
532,88	26,314
533,08	25,227
533,28	25,940
533,47	29,362
533,67	30,233
533,87	25,295
534,06	33,150
534,26	29,206
534,46	25,854
534,66	26,561
534,85	28,579
535,05	24,898
535,25	27,069
535,45	26,714
535,64	27,991
535,84	28,935
536,04	24,624
536,23	28,666
536,43	28,729
536,63	27,141
536,83	29,311
537,02	27,434
537,22	24,960
537,42	26,737
537,61	25,795
537,81	26,860
538,01	29,396
538,20	26,880
538,40	23,576
538,60	26,899
538,80	25,892
538,99	25,453
539,19	24,267
539,39	25,837
539,58	25,379
539,78	22,032
539,98	23,171
540,17	23,767
540,37	24,060
540,57	21,717
540,76	22,134
540,96	20,017
541,16	22,997
541,36	20,256
541,55	19,582
541,75	18,607
541,95	21,055
542,14	19,080
542,34	18,088
542,54	19,539
542,73	20,351
542,93	21,069
543,13	18,714
543,32	19,496
543,52	20,479
543,72	18,809
543,91	19,704
544,11	18,405
544,31	18,711
544,50	19,753
544,70	20,490
544,89	20,045
545,09	20,650
545,29	19,433
545,48	21,495
545,68	19,665
545,88	20,998
546,07	19,361
546,27	21,084
546,47	21,716
546,66	22,227
546,86	22,456
547,06	20,346
547,25	23,183
547,45	24,315
547,64	23,847
547,84	28,051
548,04	25,948
548,23	25,578
548,43	26,581
548,63	28,677
548,82	25,893
549,02	25,833
549,21	23,469
549,41	24,475
549,61	26,842
549,80	24,850
550,00	26,203
550,20	22,541
550,39	26,640
550,59	26,020
550,78	25,854
550,98	24,766
551,18	27,346
551,37	27,038
551,57	26,554
551,76	25,807
551,96	25,072
552,16	23,802
552,35	25,817
552,55	27,453
552,74	29,600
552,94	26,571
553,14	25,727
553,33	25,785
553,53	25,939
553,72	27,083
553,92	29,080
554,12	24,171
554,31	28,020
554,51	27,905
554,70	23,206
554,90	25,814
555,09	28,037
555,29	30,338
555,49	28,043
555,68	29,907
555,88	25,521
556,07	28,802
556,27	30,660
556,46	25,478
556,66	25,360
556,86	30,430
557,05	28,751
557,25	24,998
557,44	26,861
557,64	26,787
557,83	28,862
558,03	26,741
558,22	26,920
558,42	26,902
558,62	28,230
558,81	27,811
559,01	26,973
559,20	30,593
559,40	26,884
559,59	26,038
559,79	27,160
559,98	28,132
560,18	29,910
560,37	26,879
560,57	29,527
560,76	23,989
560,96	26,174
561,16	26,690
561,35	27,506
561,55	29,417
561,74	29,966
561,94	26,291
562,13	27,269
562,33	29,760
562,52	28,133
562,72	26,288
562,91	26,364
563,11	27,347
563,30	29,155
563,50	25,540
563,69	25,744
563,89	26,116
564,08	28,122
564,28	26,889
564,47	26,839
564,67	27,799
564,86	25,695
565,06	24,635
565,25	27,546
565,45	26,319
565,64	31,969
565,84	26,474
566,03	24,777
566,23	25,363
566,42	28,794
566,62	26,207
566,81	26,784
567,01	27,473
567,20	28,066
567,40	25,442
567,59	24,611
567,79	29,765
567,98	30,431
568,18	28,528
568,37	28,226
568,57	27,269
568,76	29,336
568,96	26,519
569,15	28,347
569,35	28,581
569,54	29,614
569,73	30,183
569,93	27,468
570,12	27,081
570,32	27,676
570,51	28,224
570,71	29,788
570,90	29,752
571,10	26,899
571,29	27,546
571,49	27,487
571,68	28,626
571,87	27,912
572,07	27,037
572,26	25,185
572,46	29,550
572,65	28,984
572,85	26,360
573,04	27,628
573,24	27,985
573,43	29,750
573,62	29,329
573,82	29,118
574,01	28,451
574,21	26,945
574,40	25,608
574,60	25,846
574,79	29,231
574,98	26,889
575,18	28,317
575,37	26,070
575,57	27,112
575,76	29,161
575,96	28,368
576,15	27,200
576,34	28,898
576,54	28,064
576,73	28,593
576,93	26,792
577,12	26,827
577,31	27,509
577,51	26,779
577,70	25,572
577,90	27,654
578,09	25,717
578,28	27,039
578,48	27,132
578,67	28,608
578,87	28,930
579,06	27,323
579,25	28,068
579,45	27,669
579,64	26,872
579,84	26,961
580,03	25,416
580,22	28,751
580,42	26,022
580,61	26,965
580,81	26,651
581,00	28,556
581,19	28,457
581,39	26,041
581,58	25,671
581,77	27,920
581,97	28,614
582,16	26,888
582,35	26,145
582,55	26,982
582,74	29,594
582,94	25,770
583,13	24,703
583,32	27,005
583,52	26,767
583,71	28,391
583,90	27,978
584,10	27,205
584,29	28,361
584,48	26,020
584,68	27,941
584,87	28,268
585,06	28,693
585,26	25,899
585,45	27,100
585,65	28,118
585,84	25,881
586,03	27,611
586,23	26,272
586,42	27,761
586,61	28,622
586,81	26,866
587,00	26,715
587,19	26,530
587,39	27,957
587,58	27,370
587,77	26,685
587,97	26,096
588,16	28,348
588,35	28,076
588,54	28,793
588,74	27,825
588,93	29,871
589,12	28,861
589,32	27,869
589,51	27,685
589,70	26,426
589,90	26,021
590,09	27,056
590,28	30,500
590,48	26,512
590,67	28,639
590,86	26,682
591,06	26,467
591,25	30,543
591,44	28,438
591,63	27,821
591,83	29,620
592,02	27,885
592,21	26,735
592,41	26,975
592,60	30,004
592,79	27,895
592,98	28,886
593,18	28,259
593,37	28,691
593,56	29,101
593,76	26,859
593,95	27,530
594,14	26,407
594,33	31,360
594,53	28,678
594,72	27,308
594,91	31,257
595,10	29,183
595,30	28,423
595,49	27,731
595,68	30,509
595,88	29,951
596,07	27,964
596,26	29,125
596,45	28,985
596,65	28,435
596,84	28,810
597,03	28,450
597,22	31,585
597,42	31,248
597,61	29,082
597,80	29,238
597,99	29,450
598,19	29,372
598,38	29,609
598,57	27,398
598,76	30,735
598,95	30,158
599,15	30,842
599,34	29,025
599,53	28,674
599,72	28,566
599,92	29,420
600,11	29,286
600,30	29,896
600,49	31,508
600,69	28,909
600,88	30,802
601,07	29,438
601,26	30,150
601,45	30,571
601,65	30,008
601,84	29,231
602,03	31,156
602,22	30,934
602,42	30,564
602,61	28,830
602,80	31,505
602,99	29,761
603,18	26,982
603,38	30,346
603,57	28,051
603,76	29,077
603,95	28,791
604,14	29,401
604,34	31,265
604,53	28,646
604,72	30,260
604,91	29,787
605,10	30,775
605,29	29,111
605,49	28,193
605,68	30,027
605,87	30,555
606,06	29,928
606,25	27,526
606,45	30,006
606,64	28,227
606,83	29,700
607,02	30,309
607,21	30,773
607,40	30,086
607,60	26,770
607,79	28,895
607,98	26,693
608,17	27,335
608,36	28,581
608,55	28,656
608,75	28,923
608,94	27,575
609,13	24,420
609,32	24,591
609,51	25,919
609,70	23,525
609,89	25,586
610,09	23,677
610,28	27,557
610,47	25,485
610,66	24,901
610,85	24,418
611,04	27,165
611,23	25,185
611,43	24,583
611,62	25,080
611,81	24,534
612,00	25,954
612,19	24,692
612,38	24,649
612,57	26,376
612,77	24,923
612,96	25,580
613,15	26,041
613,34	27,205
613,53	26,716
613,72	28,829
613,91	27,071
614,10	26,371
614,29	28,344
614,49	26,043
614,68	26,814
614,87	28,081
615,06	30,021
615,25	26,786
615,44	30,026
615,63	29,607
615,82	28,041
616,01	28,099
616,21	27,265
616,40	29,981
616,59	31,153
616,78	29,106
616,97	28,544
617,16	30,028
617,35	31,668
617,54	28,901
617,73	30,564
617,92	28,962
618,11	31,244
618,31	26,690
618,50	30,461
618,69	30,113
618,88	29,751
619,07	28,268
619,26	28,644
619,45	30,427
619,64	28,485
619,83	27,856
620,02	28,749
620,21	30,521
620,40	30,290
620,59	30,123
620,78	28,985
620,97	29,882
621,17	30,730
621,36	29,662
621,55	29,609
621,74	31,497
621,93	29,120
622,12	29,494
622,31	28,348
622,50	30,068
622,69	31,545
622,88	30,134
623,07	31,954
623,26	28,705
623,45	31,751
623,64	28,109
623,83	29,032
624,02	30,649
624,21	29,927
624,40	30,658
624,59	27,591
624,78	29,810
624,97	32,019
625,16	28,727
625,35	27,412
625,54	29,118
625,73	29,851
625,92	30,168
626,12	31,748
626,31	31,304
626,50	30,181
626,69	30,659
626,88	27,858
627,07	31,411
627,26	29,718
627,45	28,861
627,64	29,623
627,83	30,962
628,02	28,904
628,21	29,189
628,40	29,907
628,59	31,066
628,78	29,334
628,97	27,361
629,16	28,164
629,35	29,210
629,54	31,471
629,73	30,374
629,92	27,216
630,10	30,643
630,29	29,125
630,48	29,222
630,67	29,652
630,86	29,540
631,05	29,942
631,24	31,792
631,43	28,313
631,62	30,399
631,81	28,843
632,00	30,007
632,19	29,035
632,38	30,866
632,57	25,668
632,76	29,238
632,95	29,787
633,14	33,166
633,33	32,122
633,52	29,693
633,71	31,364
633,90	31,256
634,09	30,618
634,28	30,086
634,47	29,354
634,66	30,690
634,85	30,286
635,04	32,568
635,22	29,547
635,41	30,377
635,60	31,134
635,79	32,998
635,98	29,962
636,17	31,155
636,36	29,905
636,55	29,733
636,74	29,014
636,93	31,357
637,12	31,226
637,31	29,534
637,50	29,219
637,69	29,530
637,87	33,884
638,06	30,491
638,25	31,310
638,44	31,320
638,63	27,765
638,82	31,370
639,01	31,187
639,20	31,238
639,39	31,602
639,58	29,659
639,77	30,570
639,95	29,077
640,14	31,494
640,33	29,972
640,52	30,724
640,71	31,765
640,90	31,220
641,09	32,878
641,28	28,764
641,47	31,036
641,66	31,331
641,84	30,198
642,03	29,535
642,22	30,729
642,41	33,192
642,60	31,577
642,79	30,789
642,98	31,226
643,17	31,080
643,35	30,271
643,54	31,369
643,73	31,601
643,92	32,316
644,11	30,338
644,30	30,420
644,49	33,018
644,67	30,577
644,86	29,052
645,05	32,408
645,24	31,402
645,43	31,677
645,62	31,114
645,81	32,634
645,99	32,302
646,18	32,569
646,37	31,519
646,56	31,002
646,75	32,660
646,94	31,945
647,13	30,993
647,31	29,891
647,50	30,859
647,69	32,283
647,88	30,949
648,07	31,167
648,26	34,473
648,44	31,200
648,63	29,838
648,82	31,662
649,01	33,942
649,20	30,487
649,38	30,145
649,57	31,495
649,76	29,319
649,95	32,210
650,14	29,490
650,33	29,573
650,51	31,225
650,70	32,984
650,89	31,094
651,08	31,035
651,27	31,758
651,45	31,349
651,64	29,972
651,83	29,290
652,02	31,714
652,21	31,826
652,39	32,674
652,58	32,662
652,77	32,892
652,96	33,284
653,15	32,343
653,33	30,039
653,52	30,915
653,71	34,101
653,90	31,157
654,09	32,040
654,27	32,064
654,46	32,680
654,65	30,752
654,84	31,709
655,02	33,499
655,21	31,914
655,40	33,627
655,59	31,719
655,77	33,423
655,96	31,713
656,15	31,983
656,34	31,669
656,53	30,550
656,71	31,134
656,90	31,793
657,09	33,195
657,28	32,077
657,46	30,346
657,65	31,090
657,84	30,900
658,03	32,588
658,21	32,904
658,40	31,877
658,59	31,234
658,78	32,082
658,96	31,951
659,15	32,382
659,34	31,959
659,52	32,012
659,71	32,023
659,90	30,495
660,09	31,121
660,27	31,041
660,46	32,729
660,65	31,991
660,84	31,939
661,02	32,796
661,21	30,896
661,40	32,312
661,58	29,948
661,77	31,381
661,96	29,348
662,15	31,447
662,33	30,053
662,52	30,920
662,71	32,200
662,89	28,733
663,08	29,820
663,27	31,072
663,45	31,069
663,64	29,954
663,83	29,909
664,02	30,661
664,20	30,838
664,39	30,532
664,58	29,899
664,76	31,693
664,95	31,723
665,14	32,145
665,32	30,856
665,51	31,589
665,70	31,811
665,88	32,425
666,07	31,205
666,26	33,571
666,44	32,618
666,63	31,411
666,82	30,924
667,00	31,275
667,19	28,572
667,38	30,606
667,56	32,333
667,75	31,283
667,94	30,076
668,12	30,365
668,31	31,110
668,50	31,638
668,68	33,005
668,87	29,939
669,06	31,141
669,24	31,834
669,43	30,466
669,62	30,357
669,80	30,472
669,99	30,648
670,18	32,284
670,36	29,437
670,55	31,115
670,74	31,711
670,92	30,042
671,11	31,426
671,29	30,398
671,48	30,161
671,67	30,648
671,85	30,920
672,04	29,159
672,23	29,639
672,41	30,852
672,60	32,370
672,78	30,445
672,97	32,082
673,16	31,349
673,34	31,786
673,53	29,441
673,71	31,665
673,90	31,025
674,09	31,273
674,27	30,082
674,46	31,840
674,64	31,877
674,83	31,327
675,02	29,368
675,20	31,614
675,39	29,104
675,57	32,003
675,76	30,017
675,95	31,594
676,13	33,349
676,32	30,985
676,50	31,826
676,69	28,990
676,88	30,422
677,06	29,175
677,25	30,683
677,43	35,764
677,62	31,077
677,80	31,871
677,99	31,039
678,18	31,241
678,36	33,390
678,55	29,841
678,73	31,753
678,92	31,664
679,10	30,979
679,29	31,905
679,48	30,410
679,66	30,153
679,85	31,013
680,03	30,742
680,22	31,733
680,40	30,029
680,59	30,895
680,77	31,809
680,96	32,137
681,15	29,969
681,33	33,377
681,52	31,326
681,70	31,284
681,89	33,277
682,07	31,271
682,26	30,621
682,44	32,079
682,63	32,246
682,81	30,378
683,00	32,270
683,18	30,075
683,37	32,340
683,55	31,873
683,74	30,830
683,92	36,179
684,11	31,488
684,29	31,215
684,48	31,717
684,67	30,491
684,85	31,741
685,04	31,928
685,22	30,653
685,41	31,032
685,59	31,902
685,78	31,753
685,96	31,334
686,15	30,279
686,33	29,463
686,52	30,227
686,70	31,666
686,89	31,148
687,07	31,842
687,26	31,893
687,44	32,061
687,62	29,611
687,81	32,254
687,99	30,961
688,18	30,935
688,36	30,012
688,55	30,438
688,73	31,949
688,92	29,761
689,10	31,384
689,29	30,949
689,47	33,358
689,66	29,824
689,84	31,499
690,03	32,817
690,21	30,570
690,40	30,446
690,58	29,827
690,76	28,899
690,95	31,296
691,13	30,000
691,32	32,665
691,50	31,563
691,69	31,609
691,87	29,635
692,06	29,216
692,24	30,483
692,43	30,827
692,61	29,998
692,79	30,333
692,98	29,842
693,16	32,881
693,35	29,886
693,53	29,988
693,72	30,534
693,90	31,255
694,08	30,394
694,27	30,190
694,45	32,182
694,64	32,800
694,82	30,418
695,01	29,162
695,19	30,438
695,37	30,586
695,56	29,664
695,74	30,273
695,93	31,772
696,11	30,601
696,29	31,985
696,48	33,379
696,66	31,429
696,85	30,961
697,03	29,906
697,21	32,033
697,40	30,875
697,58	30,846
697,77	29,163
697,95	31,175
698,13	31,660
698,32	31,452
698,50	30,467
698,69	30,950
698,87	31,869
699,05	30,546
699,24	31,871
699,42	31,239
699,60	29,698
699,79	28,542
699,97	29,716
700,16	28,622
700,34	32,020
700,52	31,338
700,71	31,041
700,89	29,725
701,07	31,668
701,26	31,750
701,44	30,266
701,63	29,970
701,81	30,711
701,99	32,522
702,18	27,198
702,36	28,824
702,54	30,590
702,73	30,595
702,91	30,762
703,09	29,691
703,28	31,248
703,46	32,448
703,64	30,474
703,83	29,669
704,01	32,704
704,19	31,029
704,38	28,599
704,56	29,673
704,74	32,665
704,93	30,706
705,11	30,490
705,29	31,429
705,48	34,386
705,66	31,447
705,84	31,794
706,03	28,687
706,21	32,270
706,39	29,857
706,58	28,429
706,76	28,773
706,94	30,790
707,12	31,128
707,31	30,793
707,49	30,303
707,67	31,557
707,86	32,351
708,04	30,484
708,22	29,473
708,41	30,164
708,59	29,294
708,77	28,437
708,95	28,927
709,14	34,056
709,32	31,120
709,50	29,771
709,69	28,626
709,87	31,250
710,05	31,681
710,23	29,743
710,42	28,761
710,60	30,622
710,78	31,551
710,97	30,330
711,15	30,139
711,33	32,639
711,51	29,145
711,70	28,759
711,88	29,310
712,06	31,835
712,24	30,120
712,43	31,797
712,61	29,399
712,79	29,508
712,97	29,597
713,16	29,473
713,34	30,381
713,52	31,963
713,70	31,705
713,89	30,347
714,07	30,128
714,25	31,301
714,43	30,663
714,62	28,924
714,80	30,533
714,98	28,431
715,16	29,989
715,35	27,653
715,53	30,656
715,71	32,145
715,89	32,525
716,07	30,157
716,26	34,807
716,44	32,234
716,62	32,584
716,80	31,369
716,99	30,782
717,17	29,902
717,35	31,236
717,53	30,589
717,71	30,183
717,90	30,819
718,08	30,808
718,26	28,455
718,44	31,110
718,62	32,258
718,81	31,314
718,99	29,169
719,17	30,289
719,35	30,391
719,53	30,310
719,72	29,352
719,90	31,308
720,08	29,643
720,26	32,695
720,44	29,607
720,62	29,986
720,81	33,532
720,99	32,827
721,17	31,494
721,35	31,466
721,53	30,810
721,72	31,838
721,90	31,309
722,08	29,583
722,26	32,426
722,44	30,707
722,62	29,777
722,81	30,772
722,99	30,216
723,17	28,361
723,35	30,071
723,53	27,987
723,71	32,310
723,89	33,040
724,08	28,359
724,26	29,258
724,44	30,841
724,62	29,753
724,80	28,796
724,98	32,152
725,16	31,779
725,35	29,466
725,53	32,184
725,71	29,852
725,89	30,996
726,07	31,175
726,25	31,559
726,43	29,832
726,61	32,525
726,80	31,540
726,98	30,839
727,16	30,691
727,34	32,115
727,52	31,792
727,70	28,933
727,88	29,477
728,06	28,704
728,25	27,606
728,43	29,793
728,61	30,158
728,79	30,810
728,97	30,357
729,15	28,928
729,33	30,900
729,51	30,161
729,69	31,604
729,87	30,564
730,06	30,221
730,24	30,567
730,42	33,180
730,60	28,912
730,78	31,047
730,96	30,180
731,14	28,813
731,32	30,224
731,50	28,899
731,68	29,072
731,86	32,219
732,04	31,405
732,22	30,339
732,41	33,714
732,59	32,708
732,77	31,150
732,95	31,178
733,13	32,310
733,31	30,775
733,49	28,689
733,67	31,697
733,85	31,543
734,03	32,601
734,21	30,120
734,39	31,349
734,57	31,692
734,75	30,726
734,93	29,612
735,11	31,094
735,29	30,422
735,47	31,974
735,65	30,208
735,84	28,467
736,02	29,156
736,20	33,592
736,38	29,991
736,56	31,326
736,74	30,122
736,92	31,389
737,10	29,929
737,28	30,346
737,46	29,964
737,64	29,792
737,82	30,361
738,00	32,384
738,18	30,949
738,36	31,736
738,54	29,968
738,72	30,080
738,90	28,819
739,08	31,842
739,26	28,162
739,44	29,180
739,62	30,589
739,80	31,947
739,98	31,613
740,16	29,399
740,34	30,020
740,52	32,625
740,70	29,702
740,88	29,737
741,06	29,621
741,24	30,452
741,42	30,582
741,60	29,855
741,78	32,624
741,96	30,114
742,14	28,155
742,32	28,833
742,50	29,960
742,68	31,200
742,86	29,114
743,04	30,303
743,21	30,288
743,39	31,245
743,57	29,489
743,75	28,907
743,93	29,366
744,11	25,824
744,29	30,551
744,47	29,232
744,65	32,055
744,83	30,935
745,01	29,889
745,19	31,228
745,37	32,281
745,55	32,795
745,73	29,765
745,91	30,958
746,09	29,665
746,27	30,759
746,45	29,278
746,62	29,425
746,80	29,397
746,98	30,363
747,16	28,404
747,34	29,938
747,52	29,191
747,70	31,069
747,88	28,977
748,06	28,623
748,24	31,142
748,42	31,907
748,60	31,053
748,78	28,702
748,95	30,648
749,13	31,355
749,31	29,554
749,49	29,549
749,67	30,900
749,85	30,731
750,03	30,287
750,21	29,324
750,39	30,061
750,57	30,071
750,74	30,599
750,92	29,504
751,10	31,206
751,28	29,237
751,46	30,642
751,64	31,605
751,82	31,762
752,00	33,315
752,17	31,308
752,35	27,485
752,53	30,001
752,71	30,220
752,89	31,946
753,07	29,954
753,25	30,955
753,43	27,060
753,60	31,077
753,78	28,286
753,96	32,471
754,14	29,946
754,32	30,979
754,50	30,439
754,68	31,425
754,85	29,412
755,03	30,955
755,21	31,610
755,39	32,537
755,57	30,029
755,75	31,258
755,92	30,620
756,10	29,504
756,28	31,886
756,46	28,957
756,64	29,861
756,82	28,994
756,99	31,256
757,17	29,231
757,35	28,295
757,53	33,379
757,71	30,799
757,89	30,184
758,06	29,153
758,24	32,124
758,42	31,137
758,60	29,509
758,78	29,133
758,95	31,799
759,13	30,794
759,31	29,610
759,49	30,001
759,67	30,033
759,84	32,329
760,02	29,467
760,20	31,277
760,38	29,847
760,56	30,573
760,73	29,668
760,91	28,704
761,09	32,445
761,27	29,515
761,45	29,785
761,62	29,116
761,80	29,640
761,98	30,202
762,16	29,581
762,33	28,556
762,51	34,444
762,69	29,781
762,87	29,768
763,05	30,164
763,22	29,824
763,40	30,114
763,58	29,212
763,76	29,584
763,93	33,358
764,11	30,671
764,29	29,815
764,47	29,392
764,64	31,412
764,82	33,001
765,00	28,033
765,18	29,769
765,35	29,373
765,53	29,800
765,71	28,772
765,89	29,548
766,06	28,674
766,24	29,180
766,42	30,007
766,60	29,871
766,77	31,121
766,95	29,688
767,13	29,522
767,30	29,807
767,48	28,797
767,66	28,174
767,84	27,440
768,01	30,855
768,19	32,674
768,37	29,737
768,54	30,135
768,72	30,355
768,90	29,633
769,08	32,613
769,25	31,297
769,43	29,963
769,61	26,614
769,78	29,787
769,96	29,998
770,14	29,974
770,31	32,277
770,49	30,956
770,67	30,222
770,85	30,995
771,02	28,777
771,20	29,406
771,38	31,158
771,55	30,498
771,73	31,117
771,91	31,619
772,08	32,638
772,26	31,206
772,44	29,981
772,61	28,677
772,79	28,583
772,97	30,420
773,14	28,116
773,32	31,629
773,50	28,600
773,67	28,205
773,85	32,031
774,03	32,464
774,20	30,198
774,38	31,281
774,56	30,330
774,73	31,344
774,91	28,442
775,09	30,818
775,26	31,702
775,44	31,016
775,61	31,703
775,79	29,569
775,97	30,715
776,14	31,209
776,32	29,740
776,50	30,342
776,67	30,197
776,85	30,450
777,03	28,404
777,20	31,152
777,38	32,325
777,55	32,174
777,73	30,078
777,91	29,645
778,08	29,876
778,26	29,450
778,43	31,101
778,61	27,458
778,79	28,216
778,96	27,573
779,14	27,863
779,32	27,634
779,49	30,164
779,67	33,988
779,84	29,513
780,02	32,236
780,20	28,382
780,37	31,520
780,55	24,236
780,72	32,465
780,90	31,860
781,07	27,594
781,25	29,854
781,43	30,366
781,60	31,384
781,78	32,132
781,95	30,731
782,13	29,827
782,30	31,952
782,48	29,561
782,66	28,405
782,83	27,134
783,01	36,028
783,18	31,816
783,36	33,059
783,53	30,705
783,71	30,321
783,89	29,702
784,06	31,569
784,24	29,845
784,41	32,034
784,59	30,634
784,76	33,998
784,94	30,134
785,11	30,122
785,29	30,443
785,46	29,681
785,64	29,999
785,82	32,830
785,99	31,295
786,17	29,934
786,34	29,940
786,52	31,172
786,69	30,590
786,87	30,049
787,04	28,077
787,22	29,122
787,39	31,391
787,57	30,659
787,74	30,363
787,92	32,951
788,09	29,288
788,27	28,470
788,44	31,920
788,62	32,372
788,79	31,850
788,97	30,219
789,14	31,795
789,32	28,281
789,49	30,561
789,67	31,808
789,84	28,169
790,02	31,086
790,19	29,412
790,37	28,854
790,54	31,326
790,72	34,613
790,89	30,297
791,07	32,609
791,24	26,803
791,42	32,075
791,59	29,238
791,77	29,691
791,94	27,255
792,12	28,676
792,29	31,035
792,47	30,942
792,64	33,305
792,81	32,467
792,99	32,202
793,16	29,116
793,34	33,115
793,51	31,405
793,69	32,672
793,86	30,375
794,04	29,745
794,21	31,355
794,39	26,840
794,56	29,291
794,73	32,960
794,91	32,999
795,08	33,364
795,26	30,644
795,43	30,281
795,61	33,823
795,78	33,003
795,95	31,909
796,13	31,145
796,30	28,750
796,48	28,990
796,65	30,506
796,83	32,561
797,00	36,674
797,17	28,433
797,35	29,216
797,52	29,947
797,70	33,930
797,87	30,953
798,04	28,871
798,22	32,131
798,39	30,469
798,57	31,718
798,74	31,610
798,91	28,593
799,09	30,785
799,26	34,389
799,44	30,883
799,61	27,270
799,78	33,184
799,96	34,093
800,13	30,405
800,31	26,690
800,48	36,433
800,65	34,489
800,83	30,572
801,00	31,011
801,17	31,042
801,35	34,190
801,52	30,793
801,70	29,960
801,87	30,961
802,04	36,023
802,22	28,013
802,39	30,350
802,56	34,383
802,74	32,871
802,91	29,196
803,08	25,671
803,26	33,119
803,43	33,380
803,61	32,568
803,78	32,001
803,95	31,145
804,13	31,702
804,30	29,106
804,47	31,035
804,65	34,124
804,82	30,516
804,99	32,146
805,17	32,196
805,34	32,909
805,51	34,208
805,69	24,033
805,86	29,498
806,03	39,835
806,21	31,726
806,38	29,012
806,55	31,869
806,72	38,035
806,90	32,909
807,07	30,781
807,24	32,448
807,42	32,263
807,59	32,008
807,76	23,785
807,94	31,546
808,11	28,238
808,28	34,448
808,45	33,157
808,63	32,473
808,80	34,645
808,97	29,725
809,15	28,928
809,32	29,860
809,49	27,776
809,67	27,308
809,84	32,889
810,01	35,146
810,18	33,764
810,36	31,652
810,53	33,454
810,70	32,344
810,87	33,847
811,05	32,305
811,22	31,105
811,39	31,429
811,57	32,935
811,74	36,786
811,91	29,386
812,08	32,758
812,26	35,716
812,43	31,936
812,60	34,827
812,77	28,895
812,95	35,485
813,12	33,315
813,29	27,353
813,46	32,906
813,64	35,526
813,81	30,408
813,98	33,823
814,15	32,130
814,32	35,517
814,50	38,832
814,67	33,582
814,84	29,602
815,01	34,974
815,19	25,087
815,36	27,206
815,53	29,054
815,70	26,805
815,87	36,225
816,05	29,725
816,22	31,555
816,39	33,809
816,56	33,869
816,74	31,575
816,91	35,164
817,08	35,356
817,25	38,645
817,42	33,518
817,60	33,134
817,77	30,385
817,94	33,152
818,11	32,682
818,28	35,442
818,45	30,705
818,63	34,774
818,80	36,514
818,97	30,467
819,14	38,093
819,31	39,763
819,49	34,051
819,66	29,225
819,83	31,806
820,00	31,637
820,17	29,488
820,34	35,417
820,52	36,301
820,69	33,072
820,86	28,757
821,03	31,280
821,20	36,255
821,37	37,157
821,55	27,184
821,72	27,156
821,89	35,743
822,06	36,121
822,23	28,755
822,40	33,041
822,57	29,974
822,75	37,352
822,92	28,606
823,09	29,364
823,26	38,288
823,43	40,018
823,60	29,784
823,77	35,018
823,94	34,504
824,12	37,677
824,29	30,669
824,46	27,272
824,63	41,684
824,80	39,069
824,97	33,534
825,14	33,277
825,31	36,150
825,49	35,873
825,66	30,792
825,83	28,831
826,00	34,695
826,17	41,562
826,34	32,353
826,51	29,038
826,68	33,623
826,85	35,501
827,02	31,902
827,20	29,124
827,37	26,537
827,54	36,048
827,71	33,415
827,88	36,528
828,05	36,572
828,22	31,384
828,39	38,214
828,56	35,646
828,73	33,429
828,90	34,965
829,07	29,492
829,25	32,856
829,42	36,651
829,59	30,975
829,76	32,545
829,93	31,385
830,10	36,152
830,27	28,643
830,44	36,647
830,61	29,684
830,78	48,871
830,95	38,649
831,12	27,919
831,29	32,727
831,46	31,207
831,63	34,897
831,80	31,159
831,97	35,298
832,14	43,169
832,31	42,737
832,48	32,858
832,65	36,347
832,83	30,771
833,00	35,630
833,17	33,743
833,34	37,445
833,51	34,721
833,68	41,034
833,85	35,052
834,02	31,037
834,19	31,363
834,36	42,143
834,53	20,225
834,70	30,906
834,87	43,393
835,04	38,313
835,21	33,223
835,38	29,304
835,55	25,164
835,72	46,753
835,89	34,039
836,06	31,019
836,23	46,048
836,40	24,056
836,57	33,098
836,74	37,262
836,91	34,955
837,08	40,825
837,25	33,598
837,42	26,482
837,59	35,698
837,76	36,462
837,93	25,889
838,09	30,633
838,26	37,154
838,43	43,093
838,60	34,848
838,77	31,848
838,94	35,403
839,11	32,951
839,28	36,268
839,45	28,583
839,62	32,768
839,79	33,556
839,96	37,899
840,13	31,369
840,30	28,282
840,47	32,279
840,64	32,495
840,81	35,790
840,98	27,202
841,15	39,860
841,32	27,553
841,48	40,070
841,65	42,584
841,82	37,955
841,99	35,040
842,16	27,238
842,33	38,645
842,50	42,408
842,67	37,071
842,84	34,310
843,01	41,291
843,18	32,053
843,35	40,592
843,52	27,607
843,68	41,290
843,85	35,181
844,02	33,714
844,19	30,268
844,36	42,540
844,53	53,997
844,70	38,509
844,87	39,158
845,04	38,142
845,21	31,891
845,37	37,542
845,54	34,860
845,71	33,012
845,88	55,969
846,05	30,652
846,22	25,214
846,39	37,204
846,56	47,174
846,72	29,278
846,89	33,504
847,06	47,456
847,23	42,547
847,40	28,802
847,57	21,862
847,74	44,833
847,90	42,849
848,07	38,583
848,24	32,615
848,41	37,314
848,58	46,114
848,75	43,996
848,92	25,573
849,08	34,534
849,25	36,372
849,42	30,068
849,59	33,989
849,76	30,764
849,93	34,004
850,09	43,763
850,26	23,846
850,43	47,155
850,60	34,162
850,77	30,801
850,94	37,112
851,10	39,445
851,27	36,373
851,44	31,121
851,61	35,898
851,78	45,592
851,95	41,350
852,11	29,020
852,28	31,455
852,45	43,381
852,62	43,088
852,79	37,406
852,95	30,326
853,12	37,584
853,29	33,213
853,46	19,808
853,63	47,131
853,79	26,894
853,96	40,042
854,13	44,667
854,30	36,289
854,46	45,720
854,63	42,120
854,80	43,949
854,97	27,221
855,14	46,251
855,30	55,944
855,47	25,279
855,64	35,434
855,81	32,093
855,97	39,515
856,14	35,595
856,31	33,719
856,48	58,734
856,65	54,243
856,81	26,056
856,98	27,535
857,15	30,447
857,32	38,615
857,48	27,960
857,65	40,773
857,82	42,088
857,99	41,872
858,15	34,975
858,32	46,458
858,49	33,912
858,65	67,619
858,82	34,494
858,99	28,300
859,16	52,835
859,32	42,256
859,49	29,728
859,66	32,703
859,83	36,134
859,99	35,651
860,16	37,369
860,33	26,790
860,49	31,509
860,66	50,259
860,83	39,173
861,00	29,112
861,16	52,998
861,33	37,508
861,50	32,542
861,66	35,804
861,83	57,731
862,00	39,858
862,16	32,453
862,33	30,462
862,50	65,402
862,67	43,507
862,83	22,866
863,00	46,812
863,17	68,605
863,33	48,054
863,50	19,994
863,67	11,605
863,83	57,153
864,00	57,288
864,17	30,124
864,33	33,066
864,50	39,375
864,67	46,089
864,83	23,592
865,00	31,007
865,17	27,021
865,33	69,941
865,50	35,746
865,67	37,250
865,83	55,608
866,00	75,350
866,17	45,981
866,33	48,336
866,50	68,504
866,66	56,727
866,83	23,558
867,00	62,185
867,16	64,947
867,33	83,380
867,50	11,908
867,66	14,530
867,83	41,812
868,00	39,319
868,16	53,114
868,33	28,734
868,49	50,380
868,66	73,466
868,83	37,249
868,99	52,314
869,16	73,596
869,32	66,641
869,49	49,714
869,66	28,122
869,82	86,052
869,99	63,695
870,15	7,489
870,32	42,426
870,49	60,595
870,65	80,624
870,82	57,721
870,98	39,690
871,15	83,609
871,32	56,538
871,48	7,916
871,65	25,456
871,81	44,115
871,98	26,286
872,15	34,216
872,31	33,240
872,48	90,595
872,64	54,384
872,81	23,816
872,97	40,148
873,14	79,955
873,31	68,924
873,47	41,862
873,64	64,268
873,80	110,205
873,97	81,861
874,13	18,200
874,30	52,834
874,46	60,677
874,63	60,094
874,80	16,067
874,96	3,428
875,13	90,901
875,29	43,614
875,46	62,720
875,62	8,777
875,79	72,007
875,95	27,413
876,12	21,394
876,28	-9,079
876,45	82,808
876,61	27,108
876,78	33,778
876,94	35,236
877,11	59,186
877,27	60,003
877,44	25,387
877,60	41,776
877,77	77,257
877,94	102,551
878,10	54,485
878,27	87,670
878,43	108,365
878,60	49,607
878,76	47,111
878,93	34,817
879,09	61,450
879,26	83,421
879,42	41,345
879,58	53,413
879,75	98,195
879,91	73,060
880,08	-20,256
880,24	59,344
880,41	15,812
880,57	78,180
880,74	21,820
880,90	-40,430
881,07	82,022
881,23	57,257
881,40	55,721
881,56	64,914
881,73	92,505
881,89	77,826
882,06	-3,176
882,22	129,052
882,38	124,001
882,55	128,304
882,71	10,468
882,88	7,584
883,04	96,213
883,21	132,820
883,37	53,308
883,54	110,822
883,70	172,998
883,86	79,928
884,03	38,075
884,19	22,476
884,36	-58,216
884,52	109,005
884,69	45,463
884,85	48,538
885,01	66,902
885,18	89,507
885,34	48,917
885,51	1,947
885,67	67,833
>>>>> Data<<<<< Espectral Procesado Extremo
