Fichero De Datos De SpectraSuite
++++++++++++++++++++++++++++++++++++
Fecha: Wed Apr 22 11:47:23 CEST 2009
Usuario: evoflor
Presente Oscuro Del Espectro: Sí
La Referencia de Presente Del Espectro De: Sí
Muestreados de los componentes de Número de espectros: 1
Espectrómetros: USB4F02353
Tiempo de integración (usec): 500000 (USB4F02353)
Promedio de Espectros Hechos un: 5 (USB4F02353)
El Alisar Del Furgón: 0 (USB4F02353)
Párrafo de de Corregir del la del del de Eléctrica del obscuridad: Sí (USB4F02353)
Estrobo/Lámpara Permitido: No (USB4F02353)
Correct for Detector Non-linearity: No (USB4F02353)
Párrafo de de Corregir del la del del de Externa del luz: No (USB4F02353)
Procesado del espectro de Número de pixeles en: 3648
>>>>> Comienza Data<<<<< Espectral Procesado Del EL
177,79	318,965
178,00	318,965
178,22	318,965
178,44	1502,363
178,66	-162,109
178,88	483,436
179,09	-291,426
179,31	338,235
179,53	529,675
179,75	89,714
179,96	1071,422
180,18	-529,185
180,40	146,449
180,62	348,767
180,83	-300,888
181,05	-2042,500
181,27	-112585,000
181,49	-58,880
181,70	481,481
181,92	726,827
182,14	488,208
182,36	244,197
182,58	107,150
182,79	1041,004
183,01	-72,879
183,23	181,728
183,45	-91,646
183,66	270,420
183,88	545,794
184,10	-3552,455
184,32	267,537
184,53	180,903
184,75	-135,394
184,97	-14,463
185,18	-121,964
185,40	-692,716
185,62	203,964
185,84	179,007
186,05	183,283
186,27	-158,798
186,49	2634,038
186,71	-15,604
186,92	195,992
187,14	-250,411
187,36	183,570
187,58	84,797
187,79	-45,266
188,01	322,852
188,23	-238,026
188,45	69,317
188,66	80,737
188,88	-1703,364
189,10	-2142,850
189,31	5,998
189,53	3,440
189,75	159,739
189,97	280,712
190,18	-158,004
190,40	799,912
190,62	-170,239
190,83	-194,523
191,05	227,639
191,27	85,100
191,49	537,092
191,70	-130,216
191,92	-351,568
192,14	-28,051
192,35	601,817
192,57	4656,714
192,79	25,236
193,01	150,290
193,22	129,414
193,44	-96,903
193,66	72,484
193,87	-34,507
194,09	-49,059
194,31	216,314
194,53	1114,580
194,74	55,298
194,96	3,561
195,18	165,116
195,39	-287,559
195,61	-110,720
195,83	-195,837
196,04	145,063
196,26	-506,960
196,48	78,448
196,70	275,716
196,91	61,292
197,13	64,013
197,35	-72,707
197,56	694,071
197,78	806,604
198,00	705,490
198,21	537,791
198,43	-842,936
198,65	101,920
198,86	427,644
199,08	224,541
199,30	202,399
199,51	-275,847
199,73	210,678
199,95	414,567
200,16	519,558
200,38	258,624
200,60	82,290
200,81	90,760
201,03	210,557
201,25	-1719,850
201,46	132,668
201,68	45,038
201,90	1965,568
202,11	-440,019
202,33	273,223
202,55	439,812
202,76	-78,358
202,98	213,537
203,20	-342,236
203,41	-436,237
203,63	118,666
203,85	-106285,000
204,06	89,988
204,28	-69,602
204,50	215,205
204,71	389,726
204,93	137,480
205,15	143,931
205,36	-313,356
205,58	404,386
205,80	-125,733
206,01	91,753
206,23	156,214
206,45	145,911
206,66	150,564
206,88	-69,723
207,10	155,648
207,31	231,371
207,53	157,100
207,75	34,551
207,96	1149,142
208,18	-172,159
208,39	76,474
208,61	4888,143
208,83	-486,109
209,04	254,572
209,26	-124,816
209,48	173,728
209,69	167,073
209,91	644,882
210,13	77,454
210,34	237,736
210,56	184,076
210,77	-1623,504
210,99	158,277
211,21	10222,647
211,42	-207,715
211,64	-45,264
211,86	200,466
212,07	175,701
212,29	187,854
212,50	141,234
212,72	367,250
212,94	67,062
213,15	51,739
213,37	108,901
213,58	33,736
213,80	-1545,893
214,02	8052,059
214,23	336,834
214,45	339,623
214,67	-1383,963
214,88	66,158
215,10	-394,692
215,31	61,103
215,53	28,830
215,75	172,322
215,96	1739,037
216,18	647,676
216,39	260,480
216,61	306,736
216,83	237,433
217,04	1902,079
217,26	-7,121
217,47	124,628
217,69	293,420
217,91	106,482
218,12	-27085,000
218,34	140,464
218,55	410,836
218,77	36,575
218,99	221,929
219,20	-73,509
219,42	349,977
219,63	109,200
219,85	-168,634
220,06	-20,442
220,28	203,662
220,50	16,037
220,71	91,860
220,93	1852,547
221,14	-1413,850
221,36	-3,604
221,58	-26,336
221,79	172,361
222,01	528,319
222,22	148,586
222,44	476,236
222,65	102,144
222,87	491,503
223,09	104,479
223,30	103,288
223,52	110,717
223,73	178,406
223,95	21,669
224,16	124,505
224,38	183,614
224,60	101,544
224,81	129,664
225,03	81,371
225,24	122,672
225,46	52,467
225,67	45,556
225,89	22,493
226,10	612,907
226,32	497,480
226,54	62,621
226,75	62,024
226,97	156,222
227,18	124,817
227,40	78,746
227,61	13,873
227,83	8,731
228,04	218,909
228,26	50,810
228,47	59,346
228,69	185,109
228,91	219,052
229,12	22,012
229,34	61,940
229,55	42,303
229,77	47,384
229,98	3,931
230,20	97,818
230,41	67,363
230,63	76,410
230,84	54,444
231,06	38,609
231,27	12,172
231,49	49,739
231,71	22,498
231,92	46,549
232,14	27,643
232,35	91,605
232,57	58,187
232,78	3,611
233,00	40,845
233,21	51,028
233,43	16,490
233,64	2,767
233,86	63,201
234,07	15,477
234,29	19,789
234,50	23,626
234,72	57,250
234,93	13,164
235,15	29,914
235,36	22,868
235,58	52,085
235,79	36,556
236,01	22,828
236,22	10,880
236,44	40,024
236,65	21,331
236,87	29,186
237,08	15,302
237,30	3,380
237,51	28,001
237,73	7,528
237,94	10,428
238,16	18,604
238,37	22,992
238,59	24,748
238,80	7,283
239,02	13,393
239,23	26,414
239,45	3,064
239,66	32,901
239,88	38,022
240,09	25,602
240,31	0,864
240,52	18,498
240,74	22,283
240,95	24,699
241,17	18,681
241,38	18,140
241,60	9,782
241,81	32,673
242,03	12,522
242,24	11,442
242,46	17,406
242,67	4,482
242,89	18,539
243,10	24,392
243,32	21,985
243,53	24,300
243,75	9,853
243,96	13,678
244,18	10,415
244,39	14,462
244,60	12,683
244,82	6,086
245,03	30,837
245,25	11,543
245,46	22,938
245,68	4,031
245,89	24,003
246,11	28,215
246,32	16,442
246,54	7,136
246,75	15,115
246,97	15,211
247,18	23,540
247,39	8,914
247,61	18,485
247,82	8,248
248,04	14,566
248,25	13,366
248,47	20,629
248,68	19,475
248,90	10,702
249,11	20,914
249,33	21,350
249,54	11,055
249,75	14,859
249,97	7,759
250,18	22,023
250,40	21,339
250,61	1,376
250,83	11,761
251,04	8,306
251,25	17,182
251,47	5,287
251,68	15,934
251,90	15,810
252,11	16,091
252,33	7,808
252,54	16,664
252,76	10,097
252,97	12,815
253,18	8,897
253,40	13,274
253,61	13,212
253,83	17,360
254,04	14,594
254,25	11,493
254,47	7,932
254,68	12,450
254,90	13,365
255,11	15,261
255,33	9,640
255,54	11,314
255,75	8,282
255,97	11,386
256,18	8,723
256,40	16,802
256,61	13,095
256,82	8,025
257,04	16,428
257,25	10,620
257,47	13,297
257,68	11,106
257,89	14,942
258,11	15,486
258,32	8,575
258,54	12,154
258,75	13,821
258,96	17,700
259,18	10,165
259,39	10,529
259,61	14,618
259,82	8,803
260,03	13,005
260,25	14,695
260,46	8,688
260,68	6,510
260,89	10,804
261,10	8,223
261,32	8,028
261,53	8,630
261,75	14,627
261,96	9,360
262,17	17,053
262,39	18,250
262,60	8,344
262,81	4,614
263,03	17,328
263,24	12,973
263,46	7,999
263,67	9,721
263,88	11,161
264,10	14,642
264,31	7,760
264,52	13,782
264,74	15,239
264,95	10,019
265,17	13,359
265,38	12,251
265,59	15,380
265,81	16,029
266,02	7,173
266,23	8,443
266,45	10,794
266,66	14,968
266,87	13,086
267,09	9,789
267,30	15,776
267,52	12,554
267,73	7,263
267,94	13,461
268,16	16,870
268,37	8,685
268,58	10,728
268,80	8,301
269,01	8,114
269,22	10,867
269,44	11,495
269,65	7,858
269,86	8,255
270,08	14,459
270,29	10,375
270,50	11,611
270,72	17,285
270,93	12,140
271,14	8,696
271,36	7,230
271,57	15,653
271,78	15,960
272,00	11,422
272,21	12,399
272,42	12,931
272,64	11,794
272,85	9,645
273,06	11,800
273,28	13,150
273,49	12,526
273,70	12,213
273,92	9,810
274,13	15,080
274,34	11,265
274,56	13,891
274,77	7,195
274,98	10,683
275,20	11,091
275,41	14,584
275,62	11,995
275,84	12,425
276,05	14,181
276,26	9,101
276,47	10,683
276,69	12,139
276,90	12,085
277,11	11,343
277,33	9,785
277,54	11,873
277,75	9,863
277,97	8,717
278,18	5,734
278,39	12,477
278,61	11,561
278,82	8,868
279,03	11,451
279,24	12,226
279,46	10,077
279,67	13,258
279,88	13,732
280,10	15,762
280,31	10,755
280,52	6,925
280,73	7,189
280,95	11,264
281,16	14,108
281,37	7,922
281,59	14,839
281,80	16,385
282,01	7,974
282,22	7,760
282,44	7,440
282,65	16,433
282,86	14,395
283,08	11,199
283,29	9,709
283,50	12,769
283,71	13,634
283,93	14,715
284,14	13,460
284,35	10,120
284,56	10,890
284,78	8,719
284,99	9,237
285,20	11,147
285,42	11,246
285,63	8,988
285,84	8,403
286,05	9,556
286,27	11,591
286,48	8,599
286,69	9,152
286,90	10,695
287,12	10,439
287,33	6,794
287,54	8,158
287,75	13,610
287,97	9,448
288,18	10,387
288,39	7,470
288,60	11,598
288,82	7,812
289,03	8,940
289,24	10,279
289,45	12,441
289,67	9,540
289,88	8,012
290,09	10,207
290,30	10,756
290,52	7,858
290,73	12,062
290,94	6,680
291,15	7,840
291,37	10,229
291,58	8,435
291,79	7,475
292,00	9,462
292,21	10,349
292,43	7,649
292,64	10,696
292,85	7,850
293,06	11,825
293,28	8,494
293,49	6,442
293,70	12,632
293,91	8,610
294,12	10,566
294,34	8,049
294,55	11,680
294,76	9,874
294,97	12,364
295,19	7,464
295,40	9,510
295,61	9,720
295,82	7,168
296,03	13,013
296,25	13,020
296,46	8,592
296,67	5,621
296,88	5,900
297,09	11,428
297,31	9,909
297,52	11,136
297,73	5,869
297,94	10,307
298,15	10,067
298,37	9,767
298,58	10,994
298,79	10,141
299,00	7,741
299,21	9,788
299,43	7,540
299,64	12,348
299,85	10,950
300,06	5,521
300,27	7,664
300,49	12,664
300,70	9,633
300,91	9,561
301,12	6,490
301,33	12,921
301,54	8,987
301,76	9,717
301,97	9,000
302,18	9,505
302,39	11,540
302,60	18,169
302,82	9,384
303,03	14,047
303,24	11,023
303,45	10,868
303,66	9,456
303,87	8,171
304,09	11,531
304,30	8,022
304,51	7,565
304,72	5,467
304,93	10,225
305,14	8,630
305,36	8,200
305,57	6,554
305,78	11,724
305,99	8,675
306,20	9,246
306,41	4,225
306,62	6,072
306,84	6,396
307,05	7,149
307,26	10,893
307,47	12,475
307,68	8,555
307,89	9,551
308,11	11,129
308,32	9,640
308,53	9,182
308,74	6,773
308,95	9,503
309,16	10,078
309,37	12,736
309,59	7,790
309,80	9,676
310,01	7,528
310,22	8,708
310,43	5,705
310,64	9,790
310,85	10,149
311,06	7,273
311,28	7,978
311,49	8,064
311,70	11,971
311,91	6,975
312,12	6,731
312,33	10,280
312,54	10,406
312,75	8,233
312,97	9,253
313,18	10,823
313,39	7,476
313,60	7,918
313,81	10,230
314,02	9,612
314,23	9,998
314,44	4,051
314,65	8,995
314,87	7,851
315,08	6,495
315,29	11,108
315,50	8,334
315,71	11,612
315,92	12,682
316,13	10,541
316,34	8,863
316,55	11,562
316,77	2,071
316,98	7,681
317,19	6,938
317,40	9,817
317,61	13,073
317,82	8,006
318,03	6,411
318,24	8,795
318,45	12,009
318,66	9,359
318,87	6,257
319,09	10,483
319,30	9,405
319,51	9,587
319,72	9,686
319,93	10,701
320,14	10,753
320,35	10,744
320,56	7,500
320,77	6,383
320,98	13,536
321,19	8,443
321,40	8,153
321,62	10,889
321,83	7,567
322,04	8,039
322,25	9,184
322,46	10,893
322,67	10,936
322,88	7,296
323,09	9,041
323,30	9,607
323,51	8,011
323,72	9,607
323,93	7,730
324,14	9,028
324,35	6,490
324,56	5,715
324,77	6,731
324,99	9,750
325,20	2,128
325,41	8,000
325,62	9,318
325,83	5,429
326,04	6,233
326,25	9,167
326,46	4,960
326,67	9,918
326,88	9,034
327,09	6,757
327,30	7,492
327,51	11,035
327,72	10,951
327,93	9,715
328,14	4,865
328,35	8,519
328,56	7,281
328,77	7,063
328,98	9,861
329,19	9,046
329,40	9,903
329,61	7,590
329,82	5,010
330,04	10,071
330,25	7,046
330,46	9,904
330,67	6,290
330,88	8,951
331,09	7,548
331,30	7,615
331,51	7,546
331,72	9,726
331,93	9,027
332,14	6,971
332,35	10,023
332,56	8,866
332,77	8,812
332,98	2,866
333,19	7,519
333,40	6,983
333,61	7,632
333,82	11,984
334,03	9,210
334,24	11,050
334,45	10,861
334,66	9,216
334,87	7,744
335,08	8,190
335,29	6,125
335,50	6,830
335,71	5,745
335,92	10,003
336,13	10,870
336,34	2,902
336,55	7,983
336,76	10,032
336,97	7,893
337,18	6,066
337,39	10,530
337,60	8,981
337,81	8,299
338,02	8,026
338,23	5,200
338,44	8,747
338,65	8,325
338,86	6,864
339,07	4,528
339,28	9,091
339,49	7,635
339,70	3,668
339,91	9,262
340,11	11,311
340,32	5,023
340,53	6,353
340,74	5,698
340,95	7,243
341,16	10,838
341,37	5,844
341,58	7,254
341,79	5,908
342,00	5,513
342,21	6,953
342,42	8,411
342,63	11,447
342,84	4,984
343,05	7,595
343,26	10,168
343,47	8,247
343,68	6,348
343,89	5,430
344,10	7,511
344,31	11,357
344,52	5,295
344,73	8,318
344,94	7,825
345,14	5,407
345,35	7,227
345,56	7,627
345,77	9,122
345,98	10,044
346,19	9,972
346,40	8,138
346,61	8,752
346,82	10,254
347,03	8,252
347,24	10,996
347,45	7,872
347,66	10,469
347,87	9,097
348,08	6,938
348,28	5,478
348,49	8,287
348,70	11,169
348,91	8,386
349,12	6,620
349,33	20,260
349,54	6,785
349,75	8,735
349,96	8,195
350,17	7,807
350,38	6,405
350,59	8,085
350,80	8,099
351,00	7,866
351,21	12,725
351,42	9,747
351,63	7,468
351,84	10,448
352,05	9,172
352,26	6,419
352,47	7,098
352,68	9,658
352,89	8,732
353,09	9,726
353,30	5,781
353,51	6,863
353,72	9,925
353,93	8,039
354,14	4,194
354,35	6,463
354,56	10,450
354,77	9,277
354,98	4,997
355,18	9,348
355,39	12,953
355,60	7,971
355,81	6,251
356,02	13,000
356,23	9,679
356,44	6,360
356,65	10,081
356,85	13,834
357,06	10,605
357,27	7,737
357,48	8,789
357,69	10,112
357,90	9,712
358,11	5,923
358,32	7,670
358,52	10,863
358,73	8,570
358,94	7,304
359,15	7,494
359,36	11,592
359,57	7,800
359,78	8,859
359,98	7,298
360,19	5,184
360,40	7,906
360,61	10,322
360,82	6,766
361,03	11,768
361,24	9,734
361,44	8,261
361,65	8,268
361,86	5,223
362,07	7,873
362,28	7,237
362,49	6,879
362,70	11,852
362,90	7,269
363,11	4,601
363,32	5,889
363,53	11,030
363,74	13,892
363,95	8,883
364,15	9,078
364,36	10,114
364,57	9,798
364,78	5,947
364,99	10,287
365,20	10,403
365,40	12,010
365,61	7,088
365,82	12,199
366,03	8,780
366,24	10,934
366,45	8,967
366,65	8,856
366,86	10,542
367,07	9,546
367,28	7,029
367,49	8,584
367,69	15,100
367,90	7,825
368,11	9,513
368,32	10,387
368,53	11,926
368,73	13,841
368,94	7,864
369,15	6,649
369,36	10,093
369,57	9,120
369,78	8,995
369,98	13,958
370,19	12,397
370,40	7,297
370,61	10,476
370,82	9,395
371,02	12,402
371,23	15,352
371,44	11,462
371,65	9,307
371,85	14,238
372,06	8,628
372,27	11,610
372,48	9,288
372,69	8,918
372,89	7,367
373,10	9,613
373,31	8,288
373,52	11,748
373,73	14,125
373,93	8,952
374,14	9,712
374,35	13,343
374,56	11,229
374,76	10,511
374,97	8,830
375,18	10,406
375,39	9,502
375,60	12,988
375,80	11,881
376,01	11,433
376,22	10,960
376,43	11,382
376,63	12,442
376,84	8,600
377,05	14,946
377,26	7,646
377,46	8,350
377,67	12,896
377,88	16,166
378,09	13,347
378,29	9,207
378,50	13,378
378,71	11,317
378,92	8,633
379,12	11,696
379,33	12,867
379,54	13,609
379,75	12,300
379,95	10,535
380,16	15,741
380,37	15,108
380,58	11,493
380,78	13,924
380,99	12,571
381,20	12,987
381,41	15,202
381,61	15,599
381,82	12,584
382,03	12,262
382,24	15,576
382,44	12,832
382,65	13,939
382,86	12,698
383,06	11,704
383,27	13,328
383,48	9,686
383,69	13,393
383,89	13,492
384,10	12,412
384,31	12,339
384,51	15,188
384,72	12,914
384,93	10,921
385,14	14,002
385,34	16,943
385,55	11,722
385,76	10,454
385,96	15,674
386,17	13,865
386,38	16,226
386,59	17,685
386,79	12,729
387,00	15,740
387,21	16,058
387,41	17,193
387,62	15,563
387,83	19,702
388,03	16,670
388,24	12,162
388,45	17,324
388,66	16,749
388,86	15,776
389,07	13,269
389,28	16,653
389,48	19,748
389,69	15,625
389,90	11,410
390,10	17,636
390,31	20,633
390,52	12,184
390,72	14,229
390,93	18,035
391,14	15,221
391,34	16,179
391,55	18,721
391,76	21,191
391,96	17,881
392,17	16,148
392,38	18,377
392,58	14,952
392,79	19,160
393,00	16,058
393,20	15,577
393,41	15,563
393,62	19,067
393,82	18,756
394,03	17,561
394,24	19,062
394,44	22,714
394,65	19,629
394,86	19,727
395,06	20,621
395,27	18,455
395,48	19,060
395,68	18,256
395,89	22,389
396,10	20,251
396,30	15,203
396,51	18,733
396,72	23,049
396,92	17,818
397,13	18,997
397,34	17,459
397,54	20,421
397,75	18,542
397,95	17,898
398,16	21,264
398,37	19,841
398,57	20,993
398,78	20,797
398,99	21,131
399,19	21,144
399,40	27,179
399,60	16,809
399,81	23,195
400,02	23,353
400,22	21,103
400,43	19,360
400,64	17,347
400,84	21,588
401,05	21,142
401,25	21,489
401,46	20,112
401,67	23,625
401,87	21,278
402,08	17,659
402,29	16,966
402,49	24,481
402,70	26,015
402,90	19,939
403,11	22,656
403,32	23,752
403,52	20,727
403,73	26,734
403,93	26,398
404,14	27,697
404,35	24,534
404,55	18,661
404,76	20,121
404,96	23,200
405,17	27,167
405,38	24,111
405,58	20,500
405,79	26,881
405,99	26,546
406,20	22,823
406,40	17,785
406,61	23,863
406,82	22,771
407,02	24,708
407,23	21,548
407,43	22,359
407,64	22,363
407,85	25,158
408,05	15,915
408,26	31,073
408,46	29,792
408,67	18,048
408,87	22,242
409,08	21,244
409,29	27,493
409,49	27,741
409,70	25,419
409,90	23,620
410,11	27,271
410,31	26,589
410,52	24,385
410,72	24,025
410,93	22,797
411,14	26,535
411,34	24,171
411,55	25,965
411,75	26,456
411,96	25,486
412,16	25,719
412,37	27,283
412,57	29,899
412,78	24,890
412,99	24,152
413,19	29,154
413,40	30,688
413,60	22,871
413,81	24,882
414,01	29,335
414,22	24,959
414,42	24,736
414,63	22,164
414,83	31,465
415,04	32,226
415,24	28,803
415,45	26,099
415,65	24,949
415,86	33,052
416,07	25,899
416,27	29,446
416,48	32,437
416,68	31,322
416,89	21,192
417,09	24,254
417,30	31,241
417,50	28,718
417,71	29,676
417,91	32,056
418,12	28,072
418,32	25,647
418,53	27,682
418,73	28,008
418,94	26,953
419,14	28,831
419,35	25,530
419,55	25,666
419,76	31,483
419,96	29,038
420,17	27,713
420,37	27,938
420,58	33,718
420,78	28,342
420,99	26,391
421,19	28,279
421,40	29,510
421,60	32,415
421,81	24,240
422,01	26,937
422,22	28,499
422,42	26,121
422,63	33,265
422,83	26,050
423,04	29,970
423,24	32,567
423,45	23,664
423,65	30,670
423,86	33,708
424,06	29,739
424,27	28,789
424,47	26,440
424,67	25,993
424,88	32,009
425,08	31,279
425,29	33,878
425,49	29,307
425,70	23,856
425,90	30,248
426,11	25,759
426,31	32,509
426,52	29,164
426,72	28,275
426,93	27,932
427,13	31,551
427,33	28,740
427,54	31,099
427,74	33,584
427,95	32,715
428,15	26,776
428,36	29,752
428,56	28,205
428,77	33,073
428,97	26,871
429,18	28,286
429,38	27,391
429,58	32,675
429,79	33,235
429,99	28,072
430,20	26,006
430,40	32,366
430,61	32,090
430,81	26,225
431,01	31,802
431,22	30,427
431,42	33,099
431,63	28,478
431,83	29,371
432,04	29,156
432,24	32,167
432,44	27,010
432,65	30,702
432,85	28,512
433,06	29,777
433,26	26,872
433,47	25,335
433,67	27,338
433,87	27,960
434,08	22,557
434,28	27,518
434,49	28,657
434,69	30,681
434,89	28,111
435,10	26,468
435,30	32,159
435,51	25,414
435,71	25,511
435,91	26,465
436,12	27,659
436,32	29,808
436,53	30,183
436,73	28,429
436,93	29,150
437,14	31,267
437,34	28,155
437,55	29,143
437,75	32,499
437,95	35,156
438,16	28,352
438,36	30,109
438,57	27,337
438,77	31,324
438,97	32,285
439,18	31,054
439,38	28,733
439,58	31,531
439,79	29,855
439,99	26,548
440,20	33,472
440,40	32,926
440,60	28,343
440,81	28,634
441,01	31,496
441,21	36,252
441,42	33,844
441,62	33,647
441,83	32,942
442,03	34,168
442,23	33,855
442,44	30,254
442,64	28,455
442,84	28,889
443,05	29,183
443,25	31,132
443,45	32,686
443,66	32,453
443,86	28,798
444,06	30,169
444,27	28,870
444,47	29,976
444,67	27,680
444,88	31,345
445,08	31,363
445,28	30,404
445,49	29,724
445,69	31,593
445,90	33,118
446,10	32,804
446,30	34,095
446,51	32,626
446,71	35,765
446,91	36,809
447,12	37,662
447,32	29,817
447,52	34,827
447,72	32,770
447,93	32,703
448,13	30,522
448,33	37,282
448,54	35,377
448,74	29,834
448,94	33,947
449,15	36,796
449,35	30,346
449,55	31,222
449,76	37,852
449,96	32,180
450,16	33,670
450,37	32,045
450,57	32,879
450,77	32,067
450,98	35,824
451,18	34,892
451,38	30,176
451,58	33,100
451,79	32,770
451,99	35,636
452,19	33,872
452,40	35,975
452,60	26,779
452,80	34,503
453,00	36,193
453,21	36,015
453,41	37,500
453,61	34,676
453,82	34,122
454,02	30,025
454,22	43,326
454,42	36,248
454,63	29,551
454,83	31,353
455,03	37,968
455,24	32,267
455,44	30,579
455,64	32,910
455,84	35,428
456,05	32,922
456,25	32,005
456,45	32,831
456,65	33,968
456,86	35,357
457,06	33,454
457,26	40,641
457,47	39,549
457,67	35,566
457,87	33,951
458,07	33,844
458,28	43,560
458,48	34,808
458,68	28,513
458,88	39,469
459,09	39,718
459,29	37,660
459,49	35,355
459,69	36,601
459,90	38,698
460,10	32,465
460,30	34,638
460,50	32,582
460,71	33,779
460,91	31,825
461,11	38,008
461,31	33,664
461,52	35,322
461,72	33,811
461,92	33,613
462,12	43,785
462,32	32,023
462,53	31,578
462,73	30,233
462,93	40,012
463,13	40,310
463,34	33,011
463,54	39,696
463,74	35,362
463,94	35,971
464,14	35,277
464,35	31,633
464,55	38,703
464,75	36,732
464,95	37,191
465,16	33,276
465,36	35,792
465,56	34,011
465,76	38,400
465,96	36,173
466,17	36,622
466,37	33,171
466,57	39,098
466,77	34,357
466,97	33,106
467,18	39,432
467,38	36,600
467,58	38,289
467,78	40,237
467,98	39,009
468,19	37,681
468,39	39,611
468,59	37,875
468,79	37,857
468,99	32,115
469,19	37,920
469,40	38,641
469,60	31,804
469,80	36,808
470,00	35,620
470,20	39,083
470,41	39,705
470,61	37,940
470,81	37,074
471,01	33,436
471,21	36,525
471,41	35,759
471,62	36,814
471,82	33,023
472,02	40,213
472,22	41,190
472,42	37,488
472,62	39,287
472,83	37,707
473,03	40,258
473,23	39,108
473,43	41,998
473,63	41,027
473,83	37,590
474,03	40,684
474,24	42,612
474,44	38,810
474,64	36,591
474,84	36,429
475,04	39,655
475,24	39,326
475,45	37,294
475,65	37,661
475,85	41,044
476,05	35,227
476,25	38,289
476,45	37,819
476,65	42,523
476,85	38,459
477,06	36,077
477,26	36,315
477,46	37,046
477,66	37,481
477,86	39,952
478,06	39,483
478,26	45,872
478,46	37,115
478,67	41,048
478,87	39,909
479,07	38,940
479,27	40,656
479,47	38,934
479,67	34,202
479,87	36,674
480,07	39,290
480,28	35,724
480,48	37,167
480,68	39,718
480,88	43,694
481,08	40,583
481,28	38,232
481,48	38,890
481,68	37,565
481,88	37,233
482,08	40,824
482,29	40,101
482,49	33,064
482,69	38,007
482,89	40,960
483,09	41,238
483,29	35,668
483,49	35,977
483,69	38,789
483,89	39,790
484,09	36,392
484,29	35,610
484,50	37,512
484,70	38,354
484,90	36,872
485,10	37,892
485,30	38,670
485,50	41,228
485,70	40,270
485,90	37,986
486,10	34,003
486,30	39,884
486,50	39,201
486,70	37,577
486,90	39,307
487,10	39,789
487,30	37,382
487,51	39,098
487,71	37,014
487,91	36,024
488,11	40,383
488,31	35,415
488,51	37,389
488,71	38,286
488,91	40,435
489,11	36,857
489,31	38,592
489,51	40,053
489,71	38,468
489,91	37,972
490,11	37,026
490,31	35,338
490,51	39,603
490,71	39,034
490,91	36,232
491,11	38,815
491,31	37,704
491,51	35,232
491,72	36,698
491,92	39,090
492,12	42,000
492,32	40,409
492,52	42,670
492,72	38,641
492,92	38,863
493,12	37,989
493,32	36,369
493,52	37,681
493,72	39,293
493,92	40,169
494,12	40,386
494,32	40,420
494,52	37,389
494,72	39,238
494,92	36,756
495,12	39,937
495,32	43,309
495,52	37,968
495,72	40,076
495,92	43,276
496,12	43,842
496,32	36,977
496,52	38,031
496,72	38,211
496,92	41,063
497,12	39,660
497,32	41,666
497,52	41,353
497,72	41,762
497,92	42,397
498,12	38,807
498,32	40,418
498,52	40,519
498,72	38,923
498,92	37,336
499,12	42,141
499,32	38,324
499,52	40,526
499,72	41,868
499,92	43,265
500,12	41,230
500,32	42,522
500,52	41,051
500,72	48,606
500,91	43,445
501,11	40,929
501,31	36,071
501,51	44,598
501,71	43,844
501,91	42,560
502,11	42,243
502,31	40,368
502,51	44,369
502,71	39,075
502,91	41,885
503,11	41,020
503,31	41,486
503,51	37,098
503,71	40,823
503,91	43,929
504,11	41,026
504,31	40,745
504,51	43,622
504,71	45,793
504,91	41,094
505,10	42,831
505,30	39,737
505,50	40,532
505,70	41,954
505,90	43,537
506,10	39,465
506,30	42,007
506,50	44,570
506,70	43,312
506,90	43,475
507,10	40,629
507,30	39,850
507,50	43,161
507,70	43,115
507,89	41,741
508,09	42,966
508,29	39,851
508,49	40,962
508,69	40,300
508,89	39,984
509,09	41,807
509,29	41,944
509,49	44,250
509,69	45,337
509,89	41,003
510,09	39,827
510,28	42,364
510,48	42,225
510,68	40,299
510,88	41,021
511,08	40,519
511,28	41,776
511,48	41,959
511,68	39,519
511,88	40,985
512,07	40,941
512,27	41,369
512,47	42,270
512,67	40,322
512,87	38,550
513,07	42,291
513,27	38,145
513,47	40,571
513,67	39,267
513,86	41,881
514,06	42,195
514,26	40,337
514,46	43,963
514,66	41,091
514,86	40,322
515,06	44,274
515,26	44,627
515,45	42,559
515,65	40,196
515,85	41,507
516,05	40,384
516,25	40,089
516,45	44,562
516,65	38,808
516,84	40,716
517,04	44,695
517,24	38,330
517,44	41,299
517,64	43,534
517,84	42,070
518,04	45,409
518,23	43,529
518,43	46,262
518,63	38,678
518,83	39,704
519,03	41,896
519,23	42,736
519,42	41,489
519,62	38,584
519,82	45,074
520,02	41,380
520,22	41,440
520,42	40,418
520,61	40,606
520,81	41,617
521,01	45,356
521,21	40,820
521,41	39,197
521,61	43,546
521,80	37,735
522,00	42,829
522,20	45,750
522,40	41,205
522,60	40,855
522,79	38,103
522,99	42,127
523,19	39,366
523,39	39,062
523,59	42,068
523,78	40,978
523,98	40,205
524,18	41,937
524,38	40,023
524,58	41,707
524,77	41,566
524,97	42,928
525,17	40,990
525,37	40,192
525,57	42,609
525,76	39,709
525,96	41,181
526,16	39,385
526,36	40,078
526,56	39,829
526,75	40,047
526,95	43,224
527,15	39,888
527,35	41,850
527,55	41,125
527,74	41,894
527,94	39,440
528,14	39,178
528,34	42,600
528,53	38,286
528,73	42,025
528,93	40,587
529,13	40,173
529,32	41,656
529,52	42,877
529,72	37,513
529,92	38,949
530,12	39,865
530,31	37,807
530,51	41,219
530,71	42,171
530,91	40,465
531,10	37,524
531,30	38,338
531,50	37,116
531,70	41,444
531,89	39,826
532,09	39,713
532,29	36,482
532,49	39,385
532,68	40,013
532,88	37,749
533,08	38,119
533,28	40,908
533,47	40,340
533,67	40,124
533,87	37,108
534,06	42,263
534,26	42,297
534,46	37,629
534,66	40,309
534,85	39,170
535,05	35,919
535,25	38,032
535,45	35,948
535,64	38,706
535,84	37,523
536,04	36,082
536,23	37,191
536,43	41,386
536,63	37,659
536,83	39,207
537,02	38,862
537,22	35,341
537,42	37,160
537,61	37,729
537,81	39,821
538,01	37,876
538,20	37,801
538,40	35,403
538,60	35,885
538,80	36,259
538,99	36,887
539,19	33,893
539,39	34,021
539,58	34,363
539,78	31,420
539,98	34,199
540,17	32,161
540,37	33,527
540,57	31,296
540,76	30,715
540,96	29,835
541,16	31,818
541,36	30,082
541,55	27,021
541,75	26,894
541,95	29,093
542,14	28,919
542,34	26,954
542,54	28,348
542,73	26,532
542,93	29,184
543,13	28,172
543,32	26,457
543,52	27,182
543,72	25,841
543,91	27,839
544,11	25,435
544,31	26,827
544,50	27,791
544,70	27,345
544,89	27,335
545,09	28,398
545,29	27,214
545,48	28,279
545,68	27,708
545,88	29,807
546,07	29,972
546,27	27,427
546,47	30,367
546,66	31,225
546,86	32,366
547,06	30,860
547,25	31,627
547,45	35,286
547,64	33,093
547,84	37,106
548,04	34,219
548,23	36,735
548,43	33,812
548,63	37,401
548,82	36,438
549,02	35,014
549,21	33,486
549,41	36,235
549,61	34,883
549,80	36,200
550,00	34,916
550,20	33,212
550,39	35,973
550,59	34,408
550,78	35,485
550,98	34,031
551,18	36,028
551,37	34,858
551,57	36,464
551,76	34,522
551,96	34,246
552,16	35,630
552,35	35,003
552,55	38,031
552,74	36,426
552,94	36,870
553,14	35,510
553,33	36,686
553,53	36,329
553,72	37,704
553,92	40,019
554,12	37,283
554,31	37,406
554,51	39,247
554,70	35,896
554,90	36,700
555,09	40,041
555,29	38,424
555,49	38,908
555,68	38,150
555,88	37,740
556,07	36,557
556,27	38,627
556,46	35,822
556,66	35,919
556,86	40,259
557,05	38,131
557,25	35,626
557,44	37,473
557,64	38,526
557,83	39,670
558,03	39,474
558,22	36,953
558,42	39,730
558,62	40,219
558,81	36,475
559,01	37,579
559,20	40,681
559,40	38,742
559,59	37,809
559,79	36,011
559,98	38,140
560,18	41,291
560,37	38,195
560,57	38,435
560,76	36,595
560,96	36,562
561,16	39,924
561,35	37,353
561,55	40,943
561,74	38,901
561,94	40,442
562,13	37,779
562,33	40,181
562,52	38,275
562,72	38,488
562,91	36,621
563,11	38,751
563,30	42,053
563,50	36,304
563,69	36,679
563,89	37,383
564,08	38,570
564,28	36,439
564,47	37,839
564,67	37,941
564,86	38,619
565,06	37,249
565,25	38,212
565,45	37,995
565,64	41,489
565,84	38,945
566,03	36,740
566,23	38,431
566,42	38,646
566,62	38,066
566,81	36,756
567,01	36,423
567,20	38,280
567,40	37,208
567,59	37,288
567,79	41,350
567,98	42,053
568,18	38,192
568,37	40,209
568,57	38,227
568,76	40,326
568,96	39,382
569,15	36,269
569,35	38,843
569,54	41,543
569,73	37,626
569,93	37,919
570,12	38,130
570,32	39,613
570,51	38,214
570,71	39,798
570,90	42,982
571,10	38,674
571,29	37,782
571,49	37,439
571,68	39,828
571,87	39,317
572,07	38,516
572,26	35,126
572,46	39,265
572,65	38,217
572,85	37,632
573,04	39,731
573,24	40,110
573,43	39,939
573,62	39,856
573,82	39,781
574,01	37,747
574,21	38,694
574,40	37,007
574,60	37,931
574,79	41,301
574,98	38,035
575,18	38,966
575,37	36,633
575,57	38,471
575,76	39,804
575,96	41,309
576,15	39,670
576,34	37,157
576,54	39,732
576,73	39,918
576,93	38,346
577,12	38,457
577,31	40,102
577,51	36,960
577,70	37,816
577,90	38,693
578,09	36,611
578,28	37,422
578,48	38,583
578,67	40,460
578,87	40,614
579,06	36,766
579,25	38,730
579,45	39,302
579,64	37,832
579,84	37,858
580,03	35,954
580,22	40,084
580,42	36,812
580,61	38,537
580,81	38,233
581,00	39,898
581,19	38,705
581,39	39,105
581,58	37,647
581,77	37,929
581,97	40,234
582,16	36,429
582,35	35,755
582,55	37,735
582,74	39,252
582,94	39,596
583,13	35,992
583,32	39,194
583,52	38,391
583,71	38,633
583,90	38,086
584,10	39,232
584,29	38,558
584,48	36,647
584,68	37,257
584,87	39,317
585,06	38,790
585,26	36,786
585,45	37,050
585,65	38,578
585,84	37,152
586,03	38,582
586,23	36,709
586,42	39,234
586,61	39,611
586,81	40,999
587,00	36,953
587,19	37,699
587,39	39,062
587,58	38,204
587,77	38,803
587,97	37,991
588,16	39,305
588,35	40,063
588,54	39,588
588,74	36,729
588,93	38,855
589,12	37,852
589,32	38,579
589,51	38,188
589,70	36,313
589,90	36,583
590,09	40,076
590,28	42,658
590,48	38,830
590,67	38,673
590,86	39,556
591,06	40,898
591,25	40,481
591,44	39,302
591,63	39,465
591,83	39,306
592,02	40,398
592,21	38,495
592,41	38,655
592,60	41,699
592,79	39,168
592,98	40,133
593,18	39,151
593,37	40,866
593,56	41,376
593,76	39,551
593,95	38,006
594,14	38,831
594,33	42,893
594,53	38,490
594,72	38,611
594,91	43,468
595,10	42,182
595,30	40,331
595,49	40,807
595,68	42,818
595,88	41,429
596,07	40,536
596,26	40,546
596,45	41,566
596,65	37,200
596,84	40,051
597,03	41,065
597,22	44,017
597,42	43,112
597,61	41,125
597,80	41,038
597,99	40,619
598,19	40,895
598,38	40,893
598,57	39,871
598,76	40,718
598,95	40,364
599,15	41,633
599,34	43,328
599,53	41,566
599,72	41,649
599,92	42,227
600,11	41,395
600,30	41,672
600,49	41,341
600,69	40,134
600,88	40,950
601,07	41,089
601,26	41,766
601,45	41,379
601,65	42,565
601,84	43,148
602,03	42,372
602,22	42,817
602,42	42,553
602,61	40,708
602,80	44,423
602,99	40,847
603,18	39,963
603,38	41,632
603,57	40,021
603,76	41,391
603,95	41,095
604,14	42,573
604,34	42,163
604,53	41,583
604,72	42,718
604,91	41,242
605,10	41,036
605,29	42,651
605,49	40,808
605,68	41,253
605,87	42,184
606,06	40,111
606,25	39,310
606,45	40,738
606,64	41,377
606,83	41,133
607,02	40,769
607,21	41,273
607,40	39,651
607,60	38,763
607,79	41,126
607,98	38,518
608,17	39,636
608,36	39,625
608,55	38,338
608,75	38,510
608,94	38,384
609,13	35,422
609,32	35,010
609,51	35,742
609,70	34,483
609,89	35,984
610,09	34,411
610,28	35,922
610,47	34,168
610,66	33,402
610,85	33,436
611,04	35,520
611,23	32,748
611,43	33,978
611,62	33,170
611,81	34,148
612,00	34,430
612,19	33,745
612,38	35,057
612,57	35,437
612,77	35,443
612,96	35,262
613,15	37,348
613,34	37,524
613,53	38,329
613,72	38,518
613,91	36,943
614,10	37,667
614,29	39,568
614,49	37,944
614,68	37,084
614,87	37,014
615,06	43,061
615,25	37,989
615,44	39,624
615,63	40,503
615,82	39,539
616,01	40,191
616,21	38,531
616,40	40,126
616,59	42,221
616,78	41,341
616,97	41,071
617,16	40,608
617,35	43,248
617,54	41,775
617,73	43,107
617,92	41,171
618,11	41,400
618,31	39,038
618,50	42,133
618,69	40,368
618,88	40,634
619,07	39,206
619,26	39,035
619,45	40,762
619,64	40,036
619,83	38,461
620,02	39,573
620,21	42,520
620,40	41,389
620,59	40,182
620,78	38,569
620,97	41,177
621,17	39,594
621,36	40,127
621,55	39,094
621,74	41,145
621,93	40,959
622,12	40,679
622,31	40,299
622,50	40,652
622,69	42,547
622,88	39,586
623,07	42,599
623,26	42,306
623,45	42,919
623,64	40,934
623,83	40,832
624,02	42,450
624,21	42,657
624,40	41,341
624,59	40,534
624,78	40,430
624,97	43,927
625,16	39,072
625,35	39,985
625,54	40,083
625,73	40,306
625,92	40,939
626,12	43,174
626,31	43,550
626,50	42,600
626,69	42,964
626,88	41,039
627,07	42,412
627,26	40,980
627,45	40,378
627,64	41,864
627,83	42,189
628,02	40,855
628,21	39,827
628,40	40,688
628,59	43,302
628,78	40,711
628,97	40,149
629,16	39,482
629,35	41,379
629,54	42,328
629,73	41,857
629,92	40,858
630,10	40,804
630,29	42,154
630,48	40,540
630,67	38,991
630,86	42,543
631,05	40,718
631,24	43,702
631,43	39,129
631,62	42,056
631,81	41,711
632,00	41,140
632,19	38,518
632,38	42,678
632,57	37,586
632,76	42,360
632,95	42,784
633,14	43,691
633,33	42,351
633,52	40,621
633,71	43,254
633,90	39,792
634,09	43,405
634,28	42,008
634,47	41,687
634,66	42,561
634,85	42,706
635,04	44,920
635,22	41,681
635,41	40,811
635,60	44,256
635,79	44,695
635,98	40,433
636,17	43,758
636,36	43,089
636,55	40,412
636,74	40,005
636,93	42,300
637,12	43,340
637,31	42,648
637,50	40,670
637,69	43,321
637,87	43,549
638,06	43,135
638,25	42,197
638,44	42,940
638,63	41,314
638,82	42,326
639,01	40,482
639,20	41,394
639,39	44,994
639,58	40,748
639,77	42,323
639,95	41,868
640,14	44,127
640,33	41,409
640,52	41,294
640,71	44,637
640,90	42,919
641,09	44,830
641,28	43,298
641,47	43,936
641,66	43,068
641,84	41,718
642,03	41,795
642,22	41,692
642,41	45,121
642,60	42,413
642,79	42,302
642,98	43,944
643,17	40,036
643,35	41,638
643,54	42,746
643,73	43,512
643,92	43,269
644,11	40,173
644,30	40,548
644,49	45,240
644,67	41,168
644,86	41,050
645,05	44,759
645,24	40,592
645,43	42,316
645,62	42,347
645,81	43,430
645,99	43,648
646,18	43,101
646,37	40,230
646,56	42,549
646,75	45,431
646,94	43,699
647,13	42,677
647,31	40,099
647,50	43,579
647,69	43,451
647,88	41,626
648,07	42,062
648,26	46,392
648,44	40,963
648,63	41,550
648,82	42,763
649,01	43,562
649,20	42,243
649,38	42,491
649,57	43,790
649,76	41,767
649,95	43,197
650,14	40,957
650,33	41,368
650,51	42,998
650,70	43,500
650,89	42,988
651,08	41,374
651,27	43,057
651,45	40,040
651,64	41,224
651,83	42,493
652,02	41,686
652,21	43,823
652,39	43,940
652,58	43,900
652,77	41,195
652,96	42,466
653,15	42,418
653,33	42,370
653,52	43,028
653,71	44,416
653,90	43,553
654,09	43,995
654,27	43,778
654,46	45,354
654,65	44,565
654,84	43,564
655,02	44,296
655,21	43,972
655,40	45,746
655,59	43,003
655,77	44,585
655,96	43,185
656,15	43,901
656,34	45,400
656,53	43,319
656,71	43,830
656,90	43,084
657,09	44,751
657,28	44,594
657,46	44,383
657,65	43,823
657,84	42,400
658,03	44,266
658,21	45,184
658,40	42,238
658,59	42,936
658,78	44,092
658,96	42,032
659,15	43,582
659,34	42,703
659,52	42,602
659,71	43,261
659,90	41,301
660,09	42,448
660,27	44,183
660,46	45,440
660,65	42,815
660,84	41,201
661,02	42,784
661,21	43,998
661,40	40,071
661,58	42,794
661,77	41,932
661,96	41,672
662,15	41,378
662,33	40,792
662,52	41,929
662,71	43,066
662,89	40,743
663,08	41,482
663,27	42,618
663,45	42,606
663,64	43,507
663,83	40,079
664,02	42,839
664,20	45,849
664,39	41,311
664,58	42,188
664,76	41,592
664,95	42,277
665,14	41,479
665,32	41,338
665,51	43,211
665,70	44,323
665,88	43,467
666,07	42,537
666,26	43,880
666,44	44,217
666,63	41,010
666,82	41,212
667,00	43,610
667,19	39,684
667,38	42,494
667,56	43,971
667,75	42,713
667,94	43,552
668,12	39,972
668,31	42,317
668,50	42,594
668,68	42,966
668,87	41,211
669,06	41,661
669,24	44,105
669,43	41,589
669,62	40,110
669,80	40,374
669,99	42,104
670,18	43,134
670,36	40,168
670,55	41,467
670,74	41,994
670,92	40,321
671,11	42,747
671,29	41,257
671,48	41,198
671,67	41,112
671,85	42,008
672,04	40,242
672,23	39,679
672,41	42,539
672,60	40,536
672,78	40,084
672,97	42,190
673,16	41,928
673,34	42,340
673,53	39,526
673,71	40,383
673,90	43,631
674,09	41,660
674,27	41,185
674,46	42,294
674,64	43,538
674,83	43,175
675,02	40,655
675,20	42,380
675,39	41,719
675,57	42,051
675,76	40,373
675,95	42,219
676,13	43,352
676,32	43,134
676,50	44,016
676,69	39,674
676,88	41,724
677,06	39,686
677,25	42,924
677,43	43,736
677,62	43,506
677,80	42,068
677,99	40,308
678,18	42,057
678,36	41,787
678,55	40,193
678,73	40,674
678,92	41,708
679,10	41,658
679,29	40,673
679,48	41,056
679,66	41,627
679,85	41,752
680,03	42,372
680,22	40,898
680,40	41,434
680,59	41,619
680,77	41,116
680,96	41,850
681,15	41,054
681,33	43,242
681,52	41,319
681,70	40,602
681,89	43,754
682,07	41,475
682,26	40,311
682,44	41,554
682,63	43,110
682,81	41,364
683,00	42,404
683,18	41,659
683,37	42,648
683,55	41,639
683,74	41,983
683,92	45,617
684,11	43,174
684,29	42,332
684,48	40,061
684,67	41,714
684,85	42,778
685,04	42,779
685,22	44,180
685,41	41,806
685,59	42,104
685,78	42,470
685,96	42,231
686,15	41,781
686,33	41,068
686,52	41,406
686,70	41,171
686,89	42,216
687,07	43,575
687,26	42,734
687,44	43,175
687,62	42,832
687,81	42,731
687,99	43,384
688,18	43,583
688,36	42,180
688,55	43,816
688,73	42,539
688,92	41,334
689,10	42,938
689,29	43,646
689,47	45,056
689,66	41,274
689,84	41,346
690,03	41,396
690,21	43,165
690,40	42,663
690,58	41,563
690,76	40,978
690,95	43,171
691,13	40,389
691,32	43,578
691,50	44,429
691,69	44,318
691,87	40,511
692,06	41,940
692,24	40,634
692,43	42,797
692,61	40,636
692,79	41,254
692,98	38,900
693,16	44,446
693,35	41,096
693,53	43,294
693,72	43,310
693,90	44,446
694,08	41,625
694,27	42,209
694,45	44,198
694,64	44,413
694,82	42,962
695,01	40,953
695,19	43,843
695,37	41,902
695,56	42,553
695,74	43,545
695,93	44,470
696,11	41,174
696,29	43,332
696,48	43,693
696,66	44,606
696,85	43,040
697,03	41,504
697,21	44,595
697,40	42,423
697,58	41,765
697,77	41,945
697,95	44,047
698,13	44,108
698,32	42,052
698,50	41,965
698,69	40,285
698,87	43,944
699,05	42,400
699,24	40,909
699,42	41,637
699,60	40,324
699,79	42,386
699,97	42,802
700,16	40,866
700,34	44,283
700,52	43,062
700,71	42,027
700,89	42,971
701,07	43,239
701,26	43,463
701,44	41,307
701,63	41,435
701,81	43,149
701,99	43,527
702,18	41,257
702,36	41,057
702,54	42,838
702,73	43,258
702,91	41,590
703,09	42,083
703,28	42,730
703,46	44,762
703,64	41,735
703,83	44,058
704,01	42,757
704,19	40,930
704,38	41,029
704,56	41,270
704,74	43,312
704,93	43,910
705,11	43,902
705,29	42,091
705,48	44,894
705,66	42,671
705,84	41,450
706,03	40,970
706,21	43,599
706,39	41,627
706,58	41,706
706,76	41,592
706,94	43,988
707,12	42,318
707,31	41,721
707,49	41,966
707,67	42,751
707,86	45,026
708,04	42,471
708,22	40,377
708,41	43,727
708,59	41,432
708,77	40,366
708,95	42,351
709,14	43,849
709,32	43,277
709,50	42,584
709,69	41,537
709,87	42,086
710,05	42,431
710,23	41,027
710,42	39,110
710,60	41,720
710,78	42,289
710,97	41,256
711,15	42,649
711,33	43,834
711,51	41,676
711,70	40,767
711,88	40,966
712,06	46,212
712,24	42,046
712,43	39,516
712,61	40,526
712,79	42,425
712,97	43,070
713,16	41,175
713,34	41,450
713,52	42,906
713,70	41,474
713,89	42,124
714,07	41,316
714,25	43,075
714,43	44,831
714,62	40,877
714,80	41,782
714,98	40,228
715,16	41,134
715,35	40,388
715,53	40,839
715,71	43,385
715,89	44,577
716,07	42,292
716,26	46,042
716,44	42,649
716,62	43,607
716,80	42,573
716,99	43,530
717,17	43,808
717,35	41,355
717,53	40,477
717,71	40,965
717,90	41,851
718,08	40,949
718,26	40,407
718,44	42,851
718,62	43,040
718,81	42,358
718,99	40,290
719,17	38,809
719,35	41,446
719,53	41,025
719,72	41,765
719,90	42,076
720,08	41,955
720,26	43,946
720,44	42,964
720,62	42,923
720,81	41,933
720,99	43,270
721,17	40,932
721,35	43,428
721,53	43,833
721,72	42,898
721,90	43,095
722,08	41,871
722,26	45,410
722,44	43,698
722,62	42,449
722,81	42,911
722,99	42,243
723,17	42,061
723,35	40,718
723,53	41,865
723,71	44,591
723,89	43,667
724,08	36,980
724,26	43,185
724,44	42,467
724,62	41,923
724,80	40,292
724,98	43,185
725,16	45,575
725,35	42,125
725,53	42,424
725,71	40,176
725,89	44,972
726,07	42,682
726,25	45,234
726,43	41,372
726,61	43,512
726,80	43,183
726,98	41,331
727,16	41,953
727,34	43,920
727,52	42,929
727,70	42,158
727,88	41,286
728,06	40,638
728,25	42,030
728,43	42,845
728,61	42,012
728,79	40,028
728,97	41,996
729,15	40,561
729,33	43,462
729,51	43,130
729,69	43,022
729,87	42,280
730,06	42,563
730,24	41,499
730,42	45,124
730,60	40,633
730,78	42,794
730,96	42,023
731,14	44,766
731,32	41,911
731,50	40,989
731,68	42,663
731,86	43,370
732,04	42,342
732,22	41,485
732,41	45,290
732,59	42,178
732,77	44,137
732,95	44,868
733,13	42,829
733,31	43,689
733,49	42,731
733,67	44,070
733,85	43,581
734,03	42,574
734,21	41,300
734,39	43,173
734,57	45,927
734,75	44,651
734,93	41,237
735,11	42,532
735,29	41,898
735,47	44,270
735,65	42,905
735,84	41,266
736,02	43,758
736,20	46,300
736,38	43,572
736,56	42,303
736,74	42,251
736,92	42,346
737,10	42,170
737,28	42,599
737,46	43,798
737,64	43,395
737,82	41,431
738,00	43,290
738,18	43,916
738,36	42,078
738,54	42,607
738,72	41,758
738,90	44,100
739,08	44,138
739,26	38,398
739,44	39,206
739,62	43,188
739,80	42,801
739,98	41,731
740,16	40,739
740,34	43,074
740,52	42,099
740,70	44,560
740,88	41,405
741,06	40,851
741,24	44,086
741,42	44,187
741,60	40,317
741,78	44,221
741,96	42,847
742,14	40,695
742,32	40,449
742,50	43,972
742,68	43,098
742,86	42,300
743,04	41,150
743,21	43,348
743,39	42,635
743,57	41,372
743,75	41,448
743,93	41,309
744,11	40,774
744,29	40,598
744,47	40,570
744,65	42,581
744,83	42,559
745,01	41,849
745,19	42,583
745,37	44,073
745,55	41,227
745,73	43,406
745,91	41,072
746,09	40,712
746,27	42,572
746,45	39,180
746,62	39,850
746,80	42,582
746,98	41,910
747,16	39,675
747,34	43,297
747,52	42,437
747,70	42,512
747,88	41,526
748,06	41,290
748,24	42,873
748,42	42,762
748,60	41,681
748,78	42,075
748,95	42,622
749,13	47,595
749,31	40,900
749,49	42,502
749,67	41,275
749,85	43,434
750,03	42,359
750,21	41,910
750,39	41,650
750,57	43,643
750,74	44,852
750,92	41,895
751,10	46,112
751,28	41,222
751,46	42,297
751,64	42,862
751,82	40,992
752,00	43,009
752,17	42,952
752,35	40,002
752,53	42,499
752,71	41,888
752,89	43,237
753,07	41,567
753,25	44,803
753,43	40,671
753,60	42,948
753,78	39,020
753,96	43,127
754,14	43,782
754,32	42,354
754,50	42,216
754,68	43,884
754,85	41,311
755,03	42,221
755,21	42,688
755,39	44,208
755,57	42,456
755,75	41,898
755,92	41,341
756,10	41,788
756,28	45,187
756,46	42,078
756,64	42,187
756,82	42,176
756,99	43,420
757,17	41,500
757,35	40,269
757,53	44,376
757,71	42,288
757,89	41,361
758,06	44,330
758,24	43,094
758,42	42,790
758,60	41,532
758,78	43,067
758,95	42,684
759,13	42,859
759,31	42,374
759,49	40,845
759,67	42,202
759,84	42,208
760,02	42,665
760,20	42,184
760,38	41,431
760,56	41,085
760,73	42,170
760,91	43,705
761,09	43,027
761,27	42,106
761,45	43,854
761,62	41,647
761,80	41,650
761,98	42,645
762,16	41,834
762,33	40,320
762,51	45,836
762,69	44,365
762,87	41,545
763,05	42,538
763,22	40,081
763,40	42,247
763,58	41,730
763,76	42,203
763,93	44,612
764,11	44,006
764,29	39,218
764,47	43,476
764,64	43,128
764,82	44,016
765,00	40,186
765,18	39,498
765,35	41,844
765,53	42,840
765,71	44,455
765,89	40,597
766,06	41,425
766,24	42,936
766,42	43,901
766,60	40,460
766,77	42,860
766,95	43,053
767,13	41,854
767,30	44,938
767,48	41,671
767,66	44,142
767,84	40,824
768,01	40,433
768,19	43,250
768,37	41,359
768,54	41,625
768,72	43,961
768,90	41,683
769,08	42,393
769,25	41,752
769,43	40,965
769,61	40,119
769,78	43,347
769,96	42,002
770,14	41,922
770,31	44,148
770,49	43,398
770,67	44,029
770,85	41,276
771,02	42,162
771,20	41,513
771,38	43,829
771,55	42,828
771,73	42,055
771,91	41,943
772,08	45,916
772,26	41,748
772,44	41,731
772,61	42,404
772,79	39,448
772,97	41,347
773,14	40,744
773,32	43,478
773,50	40,217
773,67	41,178
773,85	44,305
774,03	45,022
774,20	42,079
774,38	42,257
774,56	44,656
774,73	41,903
774,91	41,186
775,09	42,924
775,26	45,776
775,44	45,057
775,61	43,935
775,79	42,577
775,97	43,811
776,14	43,423
776,32	41,658
776,50	40,855
776,67	42,944
776,85	41,401
777,03	40,316
777,20	43,631
777,38	43,225
777,55	44,665
777,73	39,711
777,91	43,023
778,08	44,689
778,26	43,099
778,43	45,239
778,61	38,883
778,79	41,519
778,96	41,409
779,14	41,824
779,32	41,623
779,49	44,262
779,67	43,643
779,84	41,085
780,02	43,364
780,20	39,758
780,37	44,552
780,55	35,646
780,72	44,972
780,90	44,091
781,07	44,887
781,25	44,431
781,43	42,854
781,60	43,081
781,78	45,921
781,95	42,068
782,13	42,230
782,30	44,484
782,48	44,126
782,66	41,306
782,83	42,387
783,01	47,925
783,18	43,941
783,36	45,324
783,53	43,188
783,71	41,212
783,89	41,705
784,06	43,460
784,24	44,854
784,41	44,472
784,59	42,618
784,76	42,580
784,94	43,477
785,11	42,156
785,29	44,984
785,46	45,338
785,64	43,610
785,82	44,551
785,99	44,630
786,17	43,957
786,34	43,575
786,52	44,906
786,69	46,514
786,87	42,208
787,04	42,274
787,22	39,962
787,39	45,706
787,57	43,829
787,74	41,176
787,92	46,268
788,09	46,040
788,27	42,933
788,44	42,542
788,62	45,972
788,79	43,498
788,97	47,677
789,14	41,944
789,32	42,579
789,49	45,311
789,67	45,345
789,84	42,411
790,02	45,307
790,19	43,091
790,37	45,208
790,54	43,101
790,72	48,305
790,89	45,871
791,07	45,961
791,24	40,554
791,42	45,521
791,59	45,006
791,77	44,583
791,94	42,223
792,12	42,013
792,29	43,893
792,47	46,397
792,64	49,793
792,81	46,879
792,99	42,271
793,16	40,553
793,34	44,812
793,51	44,572
793,69	44,284
793,86	43,529
794,04	42,231
794,21	44,728
794,39	42,423
794,56	42,001
794,73	46,796
794,91	46,872
795,08	42,883
795,26	43,612
795,43	42,669
795,61	46,424
795,78	44,486
795,95	48,089
796,13	47,181
796,30	42,297
796,48	43,318
796,65	43,407
796,83	43,888
797,00	47,332
797,17	42,591
797,35	44,800
797,52	44,106
797,70	48,186
797,87	43,941
798,04	40,834
798,22	44,341
798,39	45,412
798,57	43,284
798,74	44,109
798,91	43,682
799,09	42,861
799,26	48,084
799,44	45,696
799,61	44,335
799,78	43,961
799,96	46,704
800,13	44,433
800,31	43,707
800,48	49,668
800,65	48,090
800,83	44,051
801,00	42,358
801,17	45,661
801,35	48,241
801,52	43,501
801,70	43,373
801,87	46,633
802,04	46,471
802,22	42,874
802,39	42,819
802,56	53,043
802,74	45,392
802,91	40,540
803,08	42,039
803,26	44,207
803,43	46,439
803,61	45,883
803,78	43,277
803,95	43,707
804,13	45,764
804,30	43,422
804,47	50,204
804,65	47,360
804,82	44,683
804,99	45,148
805,17	45,662
805,34	48,134
805,51	52,418
805,69	42,666
805,86	47,010
806,03	55,177
806,21	47,127
806,38	43,203
806,55	45,193
806,72	47,501
806,90	48,506
807,07	44,984
807,24	45,648
807,42	44,417
807,59	43,887
807,76	37,574
807,94	41,039
808,11	47,090
808,28	53,246
808,45	44,993
808,63	47,046
808,80	49,353
808,97	46,022
809,15	43,371
809,32	48,300
809,49	45,100
809,67	48,841
809,84	45,948
810,01	45,978
810,18	49,669
810,36	46,731
810,53	47,092
810,70	46,074
810,87	46,115
811,05	44,324
811,22	47,515
811,39	42,468
811,57	46,416
811,74	47,630
811,91	45,984
812,08	43,880
812,26	45,181
812,43	45,201
812,60	49,420
812,77	46,051
812,95	52,163
813,12	47,507
813,29	41,914
813,46	44,062
813,64	44,780
813,81	49,226
813,98	46,007
814,15	48,467
814,32	49,910
814,50	46,177
814,67	47,516
814,84	47,597
815,01	45,241
815,19	40,911
815,36	40,630
815,53	43,636
815,70	47,516
815,87	50,847
816,05	42,381
816,22	47,817
816,39	44,044
816,56	50,256
816,74	46,179
816,91	45,457
817,08	54,490
817,25	48,022
817,42	49,394
817,60	45,845
817,77	48,425
817,94	49,722
818,11	44,450
818,28	43,558
818,45	52,269
818,63	49,254
818,80	43,355
818,97	47,271
819,14	54,079
819,31	52,072
819,49	45,006
819,66	44,832
819,83	49,436
820,00	50,396
820,17	46,283
820,34	46,258
820,52	54,232
820,69	49,837
820,86	46,602
821,03	47,312
821,20	48,167
821,37	48,599
821,55	45,875
821,72	43,319
821,89	43,926
822,06	47,401
822,23	45,193
822,40	45,223
822,57	48,744
822,75	54,954
822,92	47,124
823,09	48,323
823,26	53,123
823,43	57,500
823,60	45,653
823,77	46,259
823,94	51,523
824,12	52,167
824,29	47,606
824,46	45,931
824,63	55,175
824,80	52,479
824,97	46,279
825,14	46,535
825,31	53,778
825,49	49,482
825,66	43,522
825,83	45,684
826,00	50,973
826,17	54,008
826,34	44,864
826,51	40,397
826,68	47,355
826,85	42,963
827,02	45,015
827,20	43,241
827,37	47,345
827,54	54,832
827,71	52,062
827,88	50,762
828,05	52,962
828,22	50,391
828,39	54,183
828,56	52,839
828,73	51,175
828,90	52,312
829,07	47,419
829,25	51,090
829,42	53,113
829,59	48,796
829,76	42,663
829,93	45,518
830,10	48,604
830,27	48,130
830,44	47,948
830,61	49,845
830,78	58,532
830,95	49,803
831,12	44,354
831,29	47,067
831,46	45,817
831,63	46,485
831,80	40,485
831,97	43,421
832,14	56,432
832,31	60,777
832,48	50,739
832,65	51,279
832,83	49,675
833,00	54,861
833,17	42,488
833,34	48,802
833,51	47,914
833,68	56,370
833,85	54,132
834,02	46,348
834,19	51,950
834,36	60,853
834,53	37,792
834,70	47,288
834,87	59,674
835,04	48,696
835,21	52,503
835,38	43,885
835,55	48,756
835,72	62,580
835,89	44,828
836,06	48,463
836,23	63,183
836,40	41,643
836,57	42,093
836,74	51,447
836,91	53,733
837,08	58,747
837,25	55,345
837,42	45,464
837,59	41,609
837,76	50,646
837,93	41,454
838,09	44,596
838,26	56,577
838,43	56,456
838,60	49,269
838,77	48,359
838,94	51,926
839,11	46,416
839,28	43,979
839,45	53,927
839,62	51,741
839,79	47,040
839,96	48,542
840,13	55,802
840,30	42,663
840,47	45,276
840,64	50,286
840,81	51,680
840,98	44,327
841,15	60,012
841,32	49,348
841,48	60,452
841,65	56,580
841,82	51,305
841,99	48,305
842,16	44,802
842,33	57,198
842,50	48,982
842,67	51,013
842,84	58,266
843,01	52,795
843,18	46,967
843,35	47,996
843,52	52,944
843,68	59,249
843,85	52,917
844,02	46,909
844,19	49,819
844,36	65,367
844,53	61,728
844,70	46,866
844,87	57,895
845,04	53,496
845,21	43,306
845,37	50,014
845,54	42,319
845,71	43,331
845,88	70,475
846,05	44,293
846,22	37,943
846,39	51,096
846,56	59,803
846,72	42,857
846,89	51,698
847,06	64,973
847,23	62,251
847,40	51,741
847,57	48,859
847,74	52,144
847,90	63,589
848,07	55,645
848,24	43,264
848,41	56,391
848,58	68,683
848,75	54,876
848,92	48,417
849,08	46,644
849,25	57,615
849,42	42,695
849,59	58,867
849,76	52,313
849,93	53,492
850,09	58,341
850,26	42,819
850,43	65,462
850,60	42,085
850,77	48,078
850,94	47,747
851,10	49,916
851,27	54,977
851,44	39,743
851,61	51,774
851,78	59,518
851,95	57,788
852,11	53,758
852,28	49,815
852,45	59,975
852,62	59,026
852,79	57,443
852,95	41,906
853,12	62,452
853,29	54,230
853,46	40,299
853,63	58,084
853,79	54,377
853,96	46,220
854,13	60,898
854,30	59,291
854,46	84,324
854,63	64,175
854,80	46,441
854,97	47,508
855,14	64,499
855,30	63,066
855,47	41,539
855,64	65,981
855,81	54,660
855,97	61,734
856,14	65,025
856,31	48,624
856,48	61,444
856,65	75,512
856,81	53,273
856,98	47,069
857,15	55,604
857,32	63,976
857,48	45,319
857,65	58,907
857,82	65,423
857,99	70,216
858,15	58,615
858,32	43,697
858,49	63,504
858,65	77,933
858,82	64,670
858,99	48,434
859,16	61,519
859,32	65,626
859,49	39,274
859,66	56,568
859,83	57,343
859,99	48,301
860,16	43,883
860,33	46,351
860,49	62,525
860,66	67,355
860,83	52,376
861,00	54,928
861,16	65,784
861,33	67,970
861,50	53,876
861,66	72,020
861,83	72,189
862,00	59,069
862,16	69,209
862,33	51,887
862,50	84,922
862,67	61,794
862,83	47,169
863,00	57,772
863,17	73,606
863,33	58,079
863,50	38,078
863,67	47,597
863,83	65,561
864,00	68,797
864,17	44,290
864,33	57,733
864,50	77,571
864,67	64,168
864,83	42,831
865,00	50,920
865,17	62,142
865,33	73,068
865,50	38,526
865,67	65,246
865,83	67,733
866,00	74,530
866,17	66,697
866,33	77,897
866,50	88,306
866,66	67,107
866,83	73,689
867,00	66,579
867,16	75,883
867,33	97,461
867,50	29,481
867,66	54,024
867,83	72,400
868,00	80,211
868,16	50,093
868,33	40,428
868,49	64,914
868,66	65,615
868,83	50,983
868,99	72,710
869,16	106,605
869,32	61,574
869,49	60,819
869,66	62,343
869,82	92,574
869,99	95,808
870,15	41,380
870,32	64,275
870,49	81,359
870,65	122,092
870,82	68,678
870,98	64,493
871,15	114,967
871,32	73,415
871,48	26,567
871,65	36,163
871,81	72,746
871,98	26,693
872,15	53,934
872,31	49,933
872,48	124,230
872,64	85,089
872,81	59,478
872,97	45,901
873,14	102,502
873,31	72,342
873,47	47,217
873,64	57,401
873,80	129,521
873,97	133,207
874,13	57,004
874,30	67,353
874,46	80,870
874,63	70,587
874,80	88,451
874,96	56,134
875,13	101,245
875,29	61,963
875,46	75,981
875,62	18,831
875,79	89,220
875,95	68,293
876,12	64,961
876,28	20,139
876,45	85,175
876,61	48,095
876,78	53,124
876,94	46,602
877,11	88,176
877,27	92,772
877,44	42,035
877,60	63,241
877,77	96,812
877,94	124,031
878,10	58,682
878,27	84,625
878,43	122,685
878,60	34,179
878,76	89,089
878,93	72,048
879,09	148,587
879,26	84,514
879,42	67,925
879,58	61,633
879,75	105,404
879,91	137,547
880,08	22,524
880,24	62,923
880,41	123,319
880,57	131,570
880,74	58,840
880,90	54,696
881,07	97,672
881,23	100,113
881,40	72,531
881,56	74,790
881,73	99,589
881,89	77,806
882,06	34,727
882,22	194,168
882,38	150,118
882,55	194,042
882,71	20,283
882,88	62,988
883,04	221,556
883,21	225,612
883,37	58,935
883,54	74,501
883,70	233,768
883,86	118,123
884,03	61,265
884,19	26,401
884,36	154,148
884,52	200,278
884,69	106,809
884,85	52,751
885,01	149,743
885,18	147,552
885,34	130,053
885,51	22,122
885,67	60,928
>>>>> Data<<<<< Espectral Procesado Extremo
