Fichero De Datos De SpectraSuite
++++++++++++++++++++++++++++++++++++
Fecha: Wed Apr 22 11:48:00 CEST 2009
Usuario: evoflor
Presente Oscuro Del Espectro: Sí
La Referencia de Presente Del Espectro De: Sí
Muestreados de los componentes de Número de espectros: 1
Espectrómetros: USB4F02353
Tiempo de integración (usec): 500000 (USB4F02353)
Promedio de Espectros Hechos un: 5 (USB4F02353)
El Alisar Del Furgón: 0 (USB4F02353)
Párrafo de de Corregir del la del del de Eléctrica del obscuridad: Sí (USB4F02353)
Estrobo/Lámpara Permitido: No (USB4F02353)
Correct for Detector Non-linearity: No (USB4F02353)
Párrafo de de Corregir del la del del de Externa del luz: No (USB4F02353)
Procesado del espectro de Número de pixeles en: 3648
>>>>> Comienza Data<<<<< Espectral Procesado Del EL
177,79	242,219
178,00	242,219
178,22	242,219
178,44	1798,901
178,66	-331,565
178,88	228,339
179,09	-50,213
179,31	249,043
179,53	485,139
179,75	43,675
179,96	1048,276
180,18	-160,923
180,40	77,707
180,62	303,448
180,83	-341,736
181,05	-593,902
181,27	-93700,000
181,49	13,478
181,70	215,000
181,92	1019,289
182,14	382,530
182,36	218,356
182,58	386,000
182,79	1000,893
183,01	-5,508
183,23	132,344
183,45	30,154
183,66	-56,195
183,88	408,235
184,10	-1130,909
184,32	111,634
184,53	140,607
184,75	-75,850
184,97	59,858
185,18	-6,955
185,40	-731,731
185,62	83,673
185,84	-44,978
186,05	234,817
186,27	-77,805
186,49	4607,692
186,71	98,887
186,92	145,949
187,14	-190,778
187,36	150,221
187,58	58,824
187,79	-19,301
188,01	193,509
188,23	-271,307
188,45	44,695
188,66	56,696
188,88	-2096,364
189,10	-2170,000
189,31	47,440
189,53	39,599
189,75	474,773
189,97	526,538
190,18	39,056
190,40	863,529
190,62	-313,098
190,83	-378,405
191,05	176,153
191,27	406,571
191,49	403,465
191,70	-286,058
191,92	-679,661
192,14	-91,208
192,35	716,446
192,57	5094,286
192,79	11,777
193,01	109,147
193,22	101,969
193,44	9,044
193,66	125,823
193,87	40,685
194,09	-138,194
194,31	137,515
194,53	529,371
194,74	53,871
194,96	107,161
195,18	126,137
195,39	-287,599
195,61	-74,404
195,83	-186,087
196,04	140,879
196,26	13,065
196,48	42,519
196,70	252,485
196,91	66,415
197,13	168,861
197,35	-11,973
197,56	616,099
197,78	1780,597
198,00	648,951
198,21	61,650
198,43	-952,907
198,65	182,012
198,86	152,518
199,08	106,557
199,30	359,109
199,51	-739,088
199,73	159,344
199,95	387,871
200,16	782,692
200,38	300,602
200,60	223,538
200,81	341,328
201,03	423,370
201,25	-1288,000
201,46	217,854
201,68	55,231
201,90	902,273
202,11	-72,519
202,33	228,007
202,55	743,750
202,76	-47,483
202,98	106,969
203,20	-65,385
203,41	-185,263
203,63	171,166
203,85	-137800,000
204,06	-8,121
204,28	-158,554
204,50	151,122
204,71	233,922
204,93	-431,200
205,15	173,795
205,36	-156,788
205,58	269,674
205,80	-128,980
206,01	72,666
206,23	207,473
206,45	303,835
206,66	146,870
206,88	-18,319
207,10	294,773
207,31	269,536
207,53	154,571
207,75	-61,244
207,96	705,970
208,18	-150,683
208,39	8,372
208,61	3551,429
208,83	-211,582
209,04	61,884
209,26	-386,175
209,48	241,750
209,69	187,419
209,91	702,703
210,13	12,750
210,34	6,780
210,56	150,214
210,77	-1212,598
210,99	127,011
211,21	9217,647
211,42	-46,131
211,64	-0,661
211,86	200,491
212,07	260,260
212,29	195,312
212,50	109,625
212,72	83,462
212,94	78,109
213,15	175,059
213,37	106,531
213,58	33,703
213,80	-3282,143
214,02	13770,588
214,23	169,343
214,45	360,328
214,67	328,049
214,88	-33,557
215,10	-201,408
215,31	-68,559
215,53	-40,682
215,75	238,087
215,96	1331,056
216,18	685,915
216,39	236,718
216,61	344,105
216,83	723,661
217,04	1528,090
217,26	-41,935
217,47	172,880
217,69	299,444
217,91	27,577
218,12	-73000,000
218,34	123,968
218,55	482,493
218,77	5,717
218,99	71,343
219,20	-132,487
219,42	215,549
219,63	74,627
219,85	-126,214
220,06	121,538
220,28	174,835
220,50	141,214
220,71	71,856
220,93	2650,943
221,14	-1504,000
221,36	72,084
221,58	12,909
221,79	93,947
222,01	823,276
222,22	130,921
222,44	476,404
222,65	112,851
222,87	202,098
223,09	134,323
223,30	54,822
223,52	242,439
223,73	177,205
223,95	0,141
224,16	115,258
224,38	448,104
224,60	89,658
224,81	85,847
225,03	71,476
225,24	172,767
225,46	130,233
225,67	59,565
225,89	0,131
226,10	431,325
226,32	360,800
226,54	-81,603
226,75	12,500
226,97	97,592
227,18	83,016
227,40	47,699
227,61	16,093
227,83	63,111
228,04	119,585
228,26	44,479
228,47	50,053
228,69	139,420
228,91	144,886
229,12	49,785
229,34	29,617
229,55	22,533
229,77	12,643
229,98	-39,773
230,20	78,850
230,41	11,383
230,63	39,029
230,84	51,007
231,06	29,375
231,27	10,707
231,49	52,813
231,71	56,552
231,92	21,740
232,14	11,971
232,35	80,893
232,57	68,231
232,78	26,908
233,00	50,963
233,21	53,006
233,43	10,350
233,64	17,988
233,86	32,934
234,07	33,102
234,29	7,763
234,50	22,462
234,72	47,379
234,93	13,784
235,15	30,642
235,36	13,266
235,58	34,080
235,79	24,749
236,01	17,918
236,22	12,640
236,44	35,788
236,65	15,431
236,87	12,519
237,08	-6,985
237,30	-1,574
237,51	23,710
237,73	-5,723
237,94	8,427
238,16	26,245
238,37	8,110
238,59	14,937
238,80	18,384
239,02	11,009
239,23	21,306
239,45	-5,237
239,66	26,222
239,88	31,999
240,09	29,664
240,31	-3,083
240,52	13,709
240,74	15,473
240,95	10,787
241,17	6,782
241,38	3,290
241,60	7,412
241,81	30,923
242,03	6,406
242,24	9,027
242,46	22,166
242,67	8,016
242,89	8,662
243,10	13,362
243,32	20,396
243,53	11,657
243,75	6,107
243,96	3,798
244,18	-3,340
244,39	11,601
244,60	4,280
244,82	6,702
245,03	21,721
245,25	6,858
245,46	25,403
245,68	3,896
245,89	19,134
246,11	12,500
246,32	9,418
246,54	5,991
246,75	15,178
246,97	12,463
247,18	21,847
247,39	4,872
247,61	12,749
247,82	-0,977
248,04	4,239
248,25	6,151
248,47	16,079
248,68	10,682
248,90	4,404
249,11	14,368
249,33	16,648
249,54	8,880
249,75	7,691
249,97	3,033
250,18	11,939
250,40	10,051
250,61	-4,391
250,83	1,721
251,04	1,736
251,25	10,421
251,47	0,911
251,68	8,973
251,90	11,226
252,11	11,861
252,33	2,799
252,54	3,936
252,76	6,641
252,97	2,101
253,18	-2,764
253,40	3,762
253,61	3,901
253,83	11,514
254,04	11,885
254,25	5,840
254,47	3,604
254,68	5,654
254,90	3,290
255,11	4,663
255,33	5,804
255,54	1,695
255,75	5,106
255,97	8,553
256,18	2,603
256,40	5,896
256,61	9,576
256,82	0,555
257,04	13,032
257,25	-1,451
257,47	8,235
257,68	4,925
257,89	10,036
258,11	6,709
258,32	7,028
258,54	1,220
258,75	8,809
258,96	9,182
259,18	2,757
259,39	7,350
259,61	8,773
259,82	6,427
260,03	4,444
260,25	7,937
260,46	3,177
260,68	5,968
260,89	1,645
261,10	4,823
261,32	2,787
261,53	2,581
261,75	5,718
261,96	-0,869
262,17	9,791
262,39	6,924
262,60	4,195
262,81	-2,196
263,03	10,837
263,24	4,595
263,46	-0,979
263,67	-0,723
263,88	4,868
264,10	6,451
264,31	0,378
264,52	5,152
264,74	7,450
264,95	3,532
265,17	7,670
265,38	3,345
265,59	7,750
265,81	7,475
266,02	1,797
266,23	2,766
266,45	10,217
266,66	10,076
266,87	8,541
267,09	2,670
267,30	9,401
267,52	8,929
267,73	1,857
267,94	5,395
268,16	8,848
268,37	5,352
268,58	7,314
268,80	0,878
269,01	3,333
269,22	5,162
269,44	2,768
269,65	3,491
269,86	0,499
270,08	5,578
270,29	1,480
270,50	4,973
270,72	5,889
270,93	4,163
271,14	0,661
271,36	4,296
271,57	4,718
271,78	5,550
272,00	4,189
272,21	7,929
272,42	4,362
272,64	8,250
272,85	1,324
273,06	1,517
273,28	12,006
273,49	5,243
273,70	5,339
273,92	5,030
274,13	6,550
274,34	3,075
274,56	7,220
274,77	1,820
274,98	6,986
275,20	2,785
275,41	7,741
275,62	6,122
275,84	4,390
276,05	10,500
276,26	4,870
276,47	-0,173
276,69	8,539
276,90	4,459
277,11	3,447
277,33	3,577
277,54	5,330
277,75	7,768
277,97	2,371
278,18	-1,592
278,39	6,083
278,61	1,575
278,82	3,788
279,03	3,095
279,24	6,360
279,46	4,725
279,67	7,911
279,88	6,767
280,10	10,708
280,31	0,360
280,52	5,535
280,73	2,377
280,95	5,165
281,16	8,041
281,37	3,228
281,59	4,949
281,80	7,229
282,01	1,745
282,22	2,558
282,44	-0,250
282,65	13,553
282,86	6,907
283,08	4,019
283,29	6,143
283,50	5,677
283,71	6,299
283,93	7,389
284,14	8,095
284,35	1,768
284,56	7,686
284,78	3,000
284,99	5,948
285,20	7,274
285,42	3,376
285,63	2,579
285,84	1,634
286,05	3,259
286,27	3,151
286,48	2,799
286,69	0,997
286,90	2,996
287,12	3,386
287,33	2,267
287,54	0,871
287,75	4,136
287,97	4,901
288,18	2,537
288,39	2,116
288,60	6,674
288,82	5,924
289,03	3,750
289,24	3,112
289,45	7,691
289,67	2,607
289,88	3,099
290,09	3,915
290,30	4,310
290,52	3,172
290,73	1,268
290,94	-0,437
291,15	3,531
291,37	6,381
291,58	3,957
291,79	3,232
292,00	6,318
292,21	3,591
292,43	1,354
292,64	2,202
292,85	2,387
293,06	7,012
293,28	0,502
293,49	2,326
293,70	4,900
293,91	0,261
294,12	5,891
294,34	3,164
294,55	3,878
294,76	4,057
294,97	4,870
295,19	1,828
295,40	5,821
295,61	6,337
295,82	1,652
296,03	5,743
296,25	7,481
296,46	1,307
296,67	0,482
296,88	0,028
297,09	4,057
297,31	2,009
297,52	4,295
297,73	1,966
297,94	7,608
298,15	6,439
298,37	1,891
298,58	4,560
298,79	4,813
299,00	1,742
299,21	2,474
299,43	1,583
299,64	5,155
299,85	5,709
300,06	2,597
300,27	1,433
300,49	8,908
300,70	4,378
300,91	4,635
301,12	1,693
301,33	4,765
301,54	0,226
301,76	4,128
301,97	3,788
302,18	3,510
302,39	7,890
302,60	12,521
302,82	4,325
303,03	8,820
303,24	7,399
303,45	5,291
303,66	4,593
303,87	4,169
304,09	7,824
304,30	3,186
304,51	2,380
304,72	3,305
304,93	5,781
305,14	4,388
305,36	2,052
305,57	2,017
305,78	4,325
305,99	4,304
306,20	5,198
306,41	2,517
306,62	2,466
306,84	1,900
307,05	1,031
307,26	3,364
307,47	7,884
307,68	3,526
307,89	2,909
308,11	4,701
308,32	2,936
308,53	5,377
308,74	0,618
308,95	4,120
309,16	3,018
309,37	5,991
309,59	3,773
309,80	4,011
310,01	4,947
310,22	6,264
310,43	3,254
310,64	1,674
310,85	5,477
311,06	1,313
311,28	2,865
311,49	3,029
311,70	6,724
311,91	4,331
312,12	1,140
312,33	5,524
312,54	4,322
312,75	3,382
312,97	1,709
313,18	4,844
313,39	3,557
313,60	4,800
313,81	1,990
314,02	4,314
314,23	4,677
314,44	1,738
314,65	4,378
314,87	2,335
315,08	2,293
315,29	5,820
315,50	3,563
315,71	5,304
315,92	8,277
316,13	3,699
316,34	4,952
316,55	5,966
316,77	0,911
316,98	3,308
317,19	3,797
317,40	5,461
317,61	7,203
317,82	1,273
318,03	0,734
318,24	3,009
318,45	6,466
318,66	3,332
318,87	1,053
319,09	7,368
319,30	5,436
319,51	4,697
319,72	7,358
319,93	6,187
320,14	7,221
320,35	6,489
320,56	0,450
320,77	0,814
320,98	9,161
321,19	3,760
321,40	4,065
321,62	6,146
321,83	1,590
322,04	3,116
322,25	3,735
322,46	6,124
322,67	6,476
322,88	5,265
323,09	3,629
323,30	7,219
323,51	8,328
323,72	6,935
323,93	1,661
324,14	-0,411
324,35	1,382
324,56	1,595
324,77	1,862
324,99	4,411
325,20	-0,503
325,41	4,654
325,62	3,705
325,83	3,722
326,04	2,072
326,25	4,501
326,46	1,694
326,67	4,691
326,88	3,746
327,09	4,027
327,30	3,975
327,51	4,714
327,72	5,753
327,93	5,090
328,14	0,029
328,35	4,311
328,56	5,080
328,77	3,636
328,98	5,452
329,19	6,128
329,40	4,620
329,61	1,893
329,82	-0,488
330,04	5,485
330,25	3,209
330,46	3,362
330,67	1,659
330,88	3,525
331,09	3,922
331,30	5,600
331,51	4,159
331,72	4,213
331,93	5,729
332,14	2,883
332,35	7,760
332,56	5,060
332,77	5,657
332,98	0,239
333,19	2,999
333,40	5,714
333,61	2,371
333,82	6,702
334,03	5,688
334,24	5,527
334,45	4,507
334,66	4,506
334,87	2,177
335,08	0,427
335,29	1,938
335,50	1,583
335,71	2,704
335,92	3,971
336,13	6,471
336,34	0,271
336,55	3,396
336,76	6,689
336,97	3,310
337,18	1,690
337,39	4,261
337,60	1,772
337,81	3,972
338,02	2,824
338,23	4,280
338,44	4,914
338,65	4,033
338,86	5,015
339,07	2,824
339,28	4,875
339,49	3,889
339,70	-0,249
339,91	1,375
340,11	4,408
340,32	2,798
340,53	2,173
340,74	-0,585
340,95	1,588
341,16	6,553
341,37	3,019
341,58	2,356
341,79	1,074
342,00	7,034
342,21	3,544
342,42	2,887
342,63	6,379
342,84	1,985
343,05	3,881
343,26	7,901
343,47	4,182
343,68	-0,025
343,89	3,430
344,10	4,777
344,31	6,433
344,52	4,237
344,73	1,943
344,94	6,328
345,14	2,567
345,35	3,563
345,56	4,064
345,77	4,745
345,98	3,076
346,19	5,899
346,40	1,980
346,61	0,365
346,82	3,045
347,03	5,155
347,24	4,574
347,45	4,624
347,66	8,234
347,87	1,427
348,08	5,211
348,28	0,602
348,49	4,159
348,70	7,079
348,91	4,238
349,12	-1,480
349,33	17,379
349,54	3,320
349,75	7,676
349,96	4,209
350,17	5,206
350,38	0,442
350,59	4,783
350,80	4,097
351,00	6,253
351,21	8,954
351,42	5,231
351,63	0,116
351,84	3,818
352,05	5,887
352,26	1,600
352,47	3,770
352,68	4,674
352,89	7,801
353,09	7,747
353,30	-0,809
353,51	5,726
353,72	4,815
353,93	6,988
354,14	-0,243
354,35	2,467
354,56	6,044
354,77	3,920
354,98	0,871
355,18	6,028
355,39	8,646
355,60	2,515
355,81	2,995
356,02	1,056
356,23	3,277
356,44	1,593
356,65	5,416
356,85	8,805
357,06	7,985
357,27	5,112
357,48	3,092
357,69	6,016
357,90	5,525
358,11	1,744
358,32	5,075
358,52	7,635
358,73	6,266
358,94	2,547
359,15	5,389
359,36	6,136
359,57	1,672
359,78	3,777
359,98	2,795
360,19	1,931
360,40	3,705
360,61	8,339
360,82	1,564
361,03	8,753
361,24	6,510
361,44	0,881
361,65	1,396
361,86	1,508
362,07	5,045
362,28	-0,562
362,49	4,476
362,70	4,358
362,90	7,128
363,11	0,893
363,32	2,469
363,53	3,552
363,74	7,080
363,95	6,924
364,15	5,277
364,36	9,501
364,57	4,662
364,78	2,351
364,99	3,666
365,20	7,263
365,40	5,518
365,61	2,317
365,82	8,817
366,03	6,586
366,24	3,647
366,45	3,978
366,65	3,062
366,86	4,390
367,07	8,101
367,28	2,982
367,49	4,131
367,69	3,888
367,90	4,403
368,11	3,441
368,32	1,734
368,53	7,903
368,73	4,811
368,94	3,664
369,15	3,540
369,36	4,644
369,57	4,720
369,78	5,342
369,98	7,116
370,19	5,424
370,40	6,010
370,61	3,950
370,82	4,076
371,02	5,753
371,23	6,954
371,44	6,096
371,65	5,780
371,85	7,585
372,06	3,004
372,27	4,314
372,48	4,965
372,69	3,632
372,89	4,826
373,10	5,389
373,31	3,725
373,52	6,586
373,73	8,334
373,93	3,455
374,14	4,106
374,35	9,589
374,56	5,845
374,76	4,236
374,97	3,947
375,18	5,943
375,39	4,273
375,60	4,916
375,80	4,232
376,01	4,132
376,22	5,110
376,43	6,646
376,63	4,322
376,84	1,129
377,05	6,801
377,26	-0,540
377,46	2,555
377,67	5,648
377,88	7,468
378,09	3,623
378,29	-0,484
378,50	5,935
378,71	6,039
378,92	3,021
379,12	4,479
379,33	4,112
379,54	6,261
379,75	4,270
379,95	4,073
380,16	5,515
380,37	8,764
380,58	6,373
380,78	6,917
380,99	2,765
381,20	7,285
381,41	3,692
381,61	6,891
381,82	5,363
382,03	1,638
382,24	5,963
382,44	7,194
382,65	6,129
382,86	6,103
383,06	3,484
383,27	5,189
383,48	5,703
383,69	7,621
383,89	7,370
384,10	5,756
384,31	5,201
384,51	7,613
384,72	7,081
384,93	5,002
385,14	5,168
385,34	7,960
385,55	6,387
385,76	1,239
385,96	8,836
386,17	5,185
386,38	7,874
386,59	1,860
386,79	3,021
387,00	8,688
387,21	6,145
387,41	7,013
387,62	4,177
387,83	11,380
388,03	7,520
388,24	2,535
388,45	8,571
388,66	9,150
388,86	5,910
389,07	6,265
389,28	12,466
389,48	5,890
389,69	5,069
389,90	6,330
390,10	8,502
390,31	8,369
390,52	4,352
390,72	4,180
390,93	7,329
391,14	8,213
391,34	6,218
391,55	11,470
391,76	12,576
391,96	8,345
392,17	6,877
392,38	7,730
392,58	9,669
392,79	9,534
393,00	4,877
393,20	7,888
393,41	9,675
393,62	9,732
393,82	9,098
394,03	5,611
394,24	7,588
394,44	9,717
394,65	12,430
394,86	7,094
395,06	9,759
395,27	6,974
395,48	6,682
395,68	8,873
395,89	9,666
396,10	8,941
396,30	6,970
396,51	6,561
396,72	12,337
396,92	5,976
397,13	8,478
397,34	6,466
397,54	12,853
397,75	10,303
397,95	8,283
398,16	9,212
398,37	9,405
398,57	6,618
398,78	12,607
398,99	12,378
399,19	12,393
399,40	13,709
399,60	8,440
399,81	10,845
400,02	13,717
400,22	11,749
400,43	10,595
400,64	13,653
400,84	12,240
401,05	11,349
401,25	15,673
401,46	14,382
401,67	13,426
401,87	10,824
402,08	9,047
402,29	12,232
402,49	13,407
402,70	15,785
402,90	11,502
403,11	12,850
403,32	14,600
403,52	16,144
403,73	15,067
403,93	16,343
404,14	18,704
404,35	15,917
404,55	12,708
404,76	11,142
404,96	15,244
405,17	20,384
405,38	16,832
405,58	11,701
405,79	18,310
405,99	18,235
406,20	12,526
406,40	13,267
406,61	19,887
406,82	12,968
407,02	18,853
407,23	15,934
407,43	15,822
407,64	17,190
407,85	17,400
408,05	10,858
408,26	24,867
408,46	22,291
408,67	17,273
408,87	17,681
409,08	20,822
409,29	22,962
409,49	20,571
409,70	18,752
409,90	21,530
410,11	21,690
410,31	20,350
410,52	20,584
410,72	20,905
410,93	22,384
411,14	18,445
411,34	19,295
411,55	22,189
411,75	23,972
411,96	21,597
412,16	20,039
412,37	18,974
412,57	20,075
412,78	23,799
412,99	17,641
413,19	22,322
413,40	21,875
413,60	20,308
413,81	20,870
414,01	23,702
414,22	21,056
414,42	21,140
414,63	21,787
414,83	27,533
415,04	27,258
415,24	25,218
415,45	21,939
415,65	23,336
415,86	26,342
416,07	23,181
416,27	26,764
416,48	28,881
416,68	26,311
416,89	24,272
417,09	20,880
417,30	31,203
417,50	23,694
417,71	27,852
417,91	27,624
418,12	26,771
418,32	27,278
418,53	24,860
418,73	26,402
418,94	26,394
419,14	27,786
419,35	21,760
419,55	26,238
419,76	28,222
419,96	27,403
420,17	25,057
420,37	26,414
420,58	28,178
420,78	26,160
420,99	27,702
421,19	28,552
421,40	26,722
421,60	30,761
421,81	26,054
422,01	25,050
422,22	23,804
422,42	31,093
422,63	32,502
422,83	22,146
423,04	31,453
423,24	35,440
423,45	24,969
423,65	28,325
423,86	31,383
424,06	31,242
424,27	30,654
424,47	25,173
424,67	27,651
424,88	24,760
425,08	26,479
425,29	32,591
425,49	28,897
425,70	23,741
425,90	31,376
426,11	30,320
426,31	28,942
426,52	27,769
426,72	31,491
426,93	30,478
427,13	32,312
427,33	29,160
427,54	30,750
427,74	34,711
427,95	35,346
428,15	28,016
428,36	31,265
428,56	30,635
428,77	34,100
428,97	32,955
429,18	33,101
429,38	25,943
429,58	34,081
429,79	31,462
429,99	27,416
430,20	25,177
430,40	37,441
430,61	29,220
430,81	25,672
431,01	33,040
431,22	33,075
431,42	34,109
431,63	28,138
431,83	30,068
432,04	32,055
432,24	35,504
432,44	30,334
432,65	31,986
432,85	27,525
433,06	33,536
433,26	27,490
433,47	28,664
433,67	29,721
433,87	31,161
434,08	29,399
434,28	29,647
434,49	29,527
434,69	31,787
434,89	29,259
435,10	31,397
435,30	36,637
435,51	28,562
435,71	29,049
435,91	27,163
436,12	31,349
436,32	30,001
436,53	31,110
436,73	29,246
436,93	32,103
437,14	32,303
437,34	33,470
437,55	30,887
437,75	31,601
437,95	35,593
438,16	30,774
438,36	32,532
438,57	27,738
438,77	28,008
438,97	35,844
439,18	35,302
439,38	31,638
439,58	34,076
439,79	34,021
439,99	29,033
440,20	38,087
440,40	32,672
440,60	35,268
440,81	34,147
441,01	32,255
441,21	35,039
441,42	34,783
441,62	34,906
441,83	33,519
442,03	35,356
442,23	35,081
442,44	33,596
442,64	34,257
442,84	30,493
443,05	35,522
443,25	30,207
443,45	33,647
443,66	32,698
443,86	31,516
444,06	34,375
444,27	30,608
444,47	33,799
444,67	32,822
444,88	35,765
445,08	35,699
445,28	32,684
445,49	31,706
445,69	32,640
445,90	34,440
446,10	36,518
446,30	32,908
446,51	35,473
446,71	37,548
446,91	39,867
447,12	37,515
447,32	32,413
447,52	34,828
447,72	36,811
447,93	32,273
448,13	31,201
448,33	40,383
448,54	38,473
448,74	28,566
448,94	32,157
449,15	40,591
449,35	36,369
449,55	34,808
449,76	36,522
449,96	36,715
450,16	32,677
450,37	31,927
450,57	34,618
450,77	30,916
450,98	37,285
451,18	35,645
451,38	34,482
451,58	38,748
451,79	33,468
451,99	36,318
452,19	34,216
452,40	35,735
452,60	28,633
452,80	32,550
453,00	34,457
453,21	35,272
453,41	35,946
453,61	36,577
453,82	38,479
454,02	34,834
454,22	39,318
454,42	37,340
454,63	35,097
454,83	33,006
455,03	35,654
455,24	34,640
455,44	35,851
455,64	36,260
455,84	31,294
456,05	30,461
456,25	35,639
456,45	32,642
456,65	35,735
456,86	35,621
457,06	36,876
457,26	42,189
457,47	40,372
457,67	33,185
457,87	32,918
458,07	36,564
458,28	36,258
458,48	39,182
458,68	30,651
458,88	35,075
459,09	36,352
459,29	37,701
459,49	35,544
459,69	36,523
459,90	38,779
460,10	35,961
460,30	37,544
460,50	36,494
460,71	37,382
460,91	30,002
461,11	36,384
461,31	31,225
461,52	38,816
461,72	29,522
461,92	37,136
462,12	39,990
462,32	33,422
462,53	33,022
462,73	31,709
462,93	40,808
463,13	32,312
463,34	34,862
463,54	35,131
463,74	34,994
463,94	30,576
464,14	33,888
464,35	30,048
464,55	38,631
464,75	40,234
464,95	33,586
465,16	32,152
465,36	36,145
465,56	34,192
465,76	32,146
465,96	36,249
466,17	35,373
466,37	33,243
466,57	36,432
466,77	35,013
466,97	31,200
467,18	38,780
467,38	33,501
467,58	34,856
467,78	41,832
467,98	39,431
468,19	35,930
468,39	35,295
468,59	38,217
468,79	38,201
468,99	35,558
469,19	37,110
469,40	36,626
469,60	28,566
469,80	32,567
470,00	37,342
470,20	38,139
470,41	33,449
470,61	35,846
470,81	36,926
471,01	33,546
471,21	37,501
471,41	37,175
471,62	36,446
471,82	30,808
472,02	34,427
472,22	33,514
472,42	36,528
472,62	36,119
472,83	34,155
473,03	36,353
473,23	30,693
473,43	37,877
473,63	37,245
473,83	38,241
474,03	32,362
474,24	39,958
474,44	32,802
474,64	33,971
474,84	34,461
475,04	35,878
475,24	37,341
475,45	35,200
475,65	34,894
475,85	37,797
476,05	31,926
476,25	35,194
476,45	33,246
476,65	40,505
476,85	34,364
477,06	34,525
477,26	35,609
477,46	34,797
477,66	35,795
477,86	37,522
478,06	35,262
478,26	40,135
478,46	33,267
478,67	34,774
478,87	34,765
479,07	33,416
479,27	36,997
479,47	37,796
479,67	29,820
479,87	31,755
480,07	36,112
480,28	35,918
480,48	32,782
480,68	38,000
480,88	39,205
481,08	34,530
481,28	35,334
481,48	35,121
481,68	34,940
481,88	34,058
482,08	33,497
482,29	36,490
482,49	32,373
482,69	33,068
482,89	32,214
483,09	35,185
483,29	33,582
483,49	32,148
483,69	34,592
483,89	34,077
484,09	30,730
484,29	30,287
484,50	32,809
484,70	34,143
484,90	34,662
485,10	34,207
485,30	36,198
485,50	37,314
485,70	35,853
485,90	34,237
486,10	30,231
486,30	33,837
486,50	31,767
486,70	32,603
486,90	31,120
487,10	37,285
487,30	36,799
487,51	32,509
487,71	30,801
487,91	31,550
488,11	35,922
488,31	30,019
488,51	34,989
488,71	31,909
488,91	34,497
489,11	32,828
489,31	33,260
489,51	31,222
489,71	33,798
489,91	31,848
490,11	32,609
490,31	32,209
490,51	31,284
490,71	31,935
490,91	32,493
491,11	33,720
491,31	36,145
491,51	30,522
491,72	32,406
491,92	34,922
492,12	35,352
492,32	34,143
492,52	36,337
492,72	33,396
492,92	33,367
493,12	34,420
493,32	31,820
493,52	29,796
493,72	30,716
493,92	33,298
494,12	34,064
494,32	34,764
494,52	32,290
494,72	33,215
494,92	33,167
495,12	34,850
495,32	35,510
495,52	30,727
495,72	36,186
495,92	37,170
496,12	37,292
496,32	32,492
496,52	34,822
496,72	34,100
496,92	36,234
497,12	34,757
497,32	35,711
497,52	35,045
497,72	37,987
497,92	34,624
498,12	32,588
498,32	35,464
498,52	33,706
498,72	32,192
498,92	32,523
499,12	37,743
499,32	33,929
499,52	35,280
499,72	35,597
499,92	37,421
500,12	37,326
500,32	37,071
500,52	34,129
500,72	39,440
500,91	37,273
501,11	33,747
501,31	31,007
501,51	35,597
501,71	36,821
501,91	35,777
502,11	35,622
502,31	33,677
502,51	36,060
502,71	34,409
502,91	34,720
503,11	36,233
503,31	35,183
503,51	33,224
503,71	32,441
503,91	36,922
504,11	38,458
504,31	34,618
504,51	36,669
504,71	37,147
504,91	36,487
505,10	35,670
505,30	34,362
505,50	36,192
505,70	35,944
505,90	37,978
506,10	34,219
506,30	35,921
506,50	36,391
506,70	36,113
506,90	33,802
507,10	34,873
507,30	36,799
507,50	37,229
507,70	36,240
507,89	35,548
508,09	35,733
508,29	35,453
508,49	39,075
508,69	33,775
508,89	37,427
509,09	34,146
509,29	37,446
509,49	38,591
509,69	39,729
509,89	35,773
510,09	32,591
510,28	35,368
510,48	34,185
510,68	34,702
510,88	33,791
511,08	36,604
511,28	33,668
511,48	35,205
511,68	31,944
511,88	34,419
512,07	37,341
512,27	34,636
512,47	32,932
512,67	34,979
512,87	33,609
513,07	34,050
513,27	33,014
513,47	33,280
513,67	33,697
513,86	35,534
514,06	36,035
514,26	34,392
514,46	35,526
514,66	33,550
514,86	35,641
515,06	38,755
515,26	38,311
515,45	34,718
515,65	33,244
515,85	34,747
516,05	34,782
516,25	33,930
516,45	36,656
516,65	33,345
516,84	32,775
517,04	38,534
517,24	35,728
517,44	36,778
517,64	36,965
517,84	38,041
518,04	37,174
518,23	36,678
518,43	38,236
518,63	34,476
518,83	32,526
519,03	36,883
519,23	34,930
519,42	35,451
519,62	32,937
519,82	34,687
520,02	33,665
520,22	32,308
520,42	32,365
520,61	35,519
520,81	38,054
521,01	37,568
521,21	32,348
521,41	32,101
521,61	37,610
521,80	34,184
522,00	34,593
522,20	41,054
522,40	36,954
522,60	33,900
522,79	35,965
522,99	36,642
523,19	33,971
523,39	33,930
523,59	36,944
523,78	38,235
523,98	33,589
524,18	34,961
524,38	32,571
524,58	34,455
524,77	38,970
524,97	35,753
525,17	35,079
525,37	34,107
525,57	38,173
525,76	33,184
525,96	38,771
526,16	31,626
526,36	33,535
526,56	33,928
526,75	33,378
526,95	37,192
527,15	35,934
527,35	37,557
527,55	34,558
527,74	37,168
527,94	30,334
528,14	30,969
528,34	33,457
528,53	35,220
528,73	35,528
528,93	35,775
529,13	33,829
529,32	36,456
529,52	35,787
529,72	31,139
529,92	31,360
530,12	33,304
530,31	32,171
530,51	33,924
530,71	33,572
530,91	34,631
531,10	30,722
531,30	34,021
531,50	32,752
531,70	37,002
531,89	33,567
532,09	31,391
532,29	33,924
532,49	34,376
532,68	34,911
532,88	34,639
533,08	32,305
533,28	34,466
533,47	32,325
533,67	34,171
533,87	33,495
534,06	38,059
534,26	33,360
534,46	32,094
534,66	33,917
534,85	34,634
535,05	33,117
535,25	33,637
535,45	31,936
535,64	34,679
535,84	33,806
536,04	31,952
536,23	34,224
536,43	38,020
536,63	32,468
536,83	34,236
537,02	33,448
537,22	31,456
537,42	31,469
537,61	32,558
537,81	34,581
538,01	36,059
538,20	32,577
538,40	31,390
538,60	32,554
538,80	32,104
538,99	31,492
539,19	30,180
539,39	29,813
539,58	32,507
539,78	27,853
539,98	28,256
540,17	27,796
540,37	29,611
540,57	28,194
540,76	27,066
540,96	24,097
541,16	29,592
541,36	26,385
541,55	23,905
541,75	24,292
541,95	24,851
542,14	24,231
542,34	23,779
542,54	24,680
542,73	24,833
542,93	24,592
543,13	23,369
543,32	25,404
543,52	24,480
543,72	22,689
543,91	24,322
544,11	23,825
544,31	23,569
544,50	24,118
544,70	25,817
544,89	25,596
545,09	27,742
545,29	24,062
545,48	24,979
545,68	24,772
545,88	26,068
546,07	24,453
546,27	25,910
546,47	27,254
546,66	27,977
546,86	28,874
547,06	27,121
547,25	26,970
547,45	30,584
547,64	29,271
547,84	33,422
548,04	29,350
548,23	31,420
548,43	31,408
548,63	31,624
548,82	30,750
549,02	29,845
549,21	30,134
549,41	31,401
549,61	32,307
549,80	31,259
550,00	29,920
550,20	29,609
550,39	32,388
550,59	29,987
550,78	31,220
550,98	29,216
551,18	34,930
551,37	30,094
551,57	32,953
551,76	31,483
551,96	30,455
552,16	30,927
552,35	31,630
552,55	31,179
552,74	30,647
552,94	33,101
553,14	31,686
553,33	31,107
553,53	29,886
553,72	33,555
553,92	35,146
554,12	31,474
554,31	31,741
554,51	32,676
554,70	31,863
554,90	32,562
555,09	35,637
555,29	33,005
555,49	33,163
555,68	34,039
555,88	30,923
556,07	35,244
556,27	33,778
556,46	33,716
556,66	31,385
556,86	33,649
557,05	34,796
557,25	33,000
557,44	33,705
557,64	32,813
557,83	34,547
558,03	32,858
558,22	31,088
558,42	33,543
558,62	35,551
558,81	32,529
559,01	33,235
559,20	34,002
559,40	33,693
559,59	33,109
559,79	33,385
559,98	33,982
560,18	36,410
560,37	33,152
560,57	32,146
560,76	32,301
560,96	33,402
561,16	34,748
561,35	31,508
561,55	36,144
561,74	33,689
561,94	33,217
562,13	33,415
562,33	36,797
562,52	34,274
562,72	33,997
562,91	32,107
563,11	33,445
563,30	33,730
563,50	34,179
563,69	32,079
563,89	34,403
564,08	34,484
564,28	31,714
564,47	31,287
564,67	33,979
564,86	33,442
565,06	31,837
565,25	30,471
565,45	30,958
565,64	36,864
565,84	32,222
566,03	32,175
566,23	33,403
566,42	35,732
566,62	34,247
566,81	33,119
567,01	33,885
567,20	35,849
567,40	32,483
567,59	32,418
567,79	35,631
567,98	34,744
568,18	32,873
568,37	34,867
568,57	33,978
568,76	35,258
568,96	32,411
569,15	34,165
569,35	35,771
569,54	35,727
569,73	35,190
569,93	31,504
570,12	32,992
570,32	33,489
570,51	33,283
570,71	35,313
570,90	37,138
571,10	34,121
571,29	33,926
571,49	33,264
571,68	34,387
571,87	35,771
572,07	33,837
572,26	30,269
572,46	35,012
572,65	33,716
572,85	32,767
573,04	34,105
573,24	33,764
573,43	36,363
573,62	35,742
573,82	32,706
574,01	33,565
574,21	34,107
574,40	32,775
574,60	31,600
574,79	34,274
574,98	32,554
575,18	33,110
575,37	33,003
575,57	33,625
575,76	33,253
575,96	33,905
576,15	32,348
576,34	33,872
576,54	34,167
576,73	33,733
576,93	33,415
577,12	33,185
577,31	33,947
577,51	31,150
577,70	33,428
577,90	31,885
578,09	32,514
578,28	33,322
578,48	33,126
578,67	34,521
578,87	32,181
579,06	32,499
579,25	33,269
579,45	33,448
579,64	32,309
579,84	32,466
580,03	32,083
580,22	34,308
580,42	31,653
580,61	32,456
580,81	32,318
581,00	32,766
581,19	32,589
581,39	31,261
581,58	32,063
581,77	32,328
581,97	34,341
582,16	32,386
582,35	30,834
582,55	32,729
582,74	34,808
582,94	32,677
583,13	31,865
583,32	33,628
583,52	32,618
583,71	30,795
583,90	31,312
584,10	32,506
584,29	32,984
584,48	31,500
584,68	31,863
584,87	32,869
585,06	32,242
585,26	29,663
585,45	31,503
585,65	33,078
585,84	31,388
586,03	31,609
586,23	30,841
586,42	31,290
586,61	32,867
586,81	32,961
587,00	32,269
587,19	30,916
587,39	33,648
587,58	34,004
587,77	32,610
587,97	32,242
588,16	31,046
588,35	31,783
588,54	31,809
588,74	31,484
588,93	33,875
589,12	33,476
589,32	30,912
589,51	33,553
589,70	32,743
589,90	30,389
590,09	32,275
590,28	33,781
590,48	30,693
590,67	31,656
590,86	31,792
591,06	33,358
591,25	33,322
591,44	32,709
591,63	32,074
591,83	32,976
592,02	32,297
592,21	30,728
592,41	31,334
592,60	33,523
592,79	33,633
592,98	33,425
593,18	32,936
593,37	32,904
593,56	32,833
593,76	31,836
593,95	30,470
594,14	32,528
594,33	34,900
594,53	31,834
594,72	31,904
594,91	34,955
595,10	34,537
595,30	31,180
595,49	32,306
595,68	35,800
595,88	33,810
596,07	32,092
596,26	32,617
596,45	33,635
596,65	31,486
596,84	30,940
597,03	32,709
597,22	33,091
597,42	34,163
597,61	32,275
597,80	31,821
597,99	32,499
598,19	32,604
598,38	33,947
598,57	32,122
598,76	32,198
598,95	32,968
599,15	32,232
599,34	32,309
599,53	33,266
599,72	32,691
599,92	32,519
600,11	32,981
600,30	33,283
600,49	34,040
600,69	33,225
600,88	35,341
601,07	32,368
601,26	31,990
601,45	33,317
601,65	30,733
601,84	33,729
602,03	33,221
602,22	33,519
602,42	33,600
602,61	31,664
602,80	32,640
602,99	34,167
603,18	32,512
603,38	33,685
603,57	32,087
603,76	33,208
603,95	32,087
604,14	34,247
604,34	33,946
604,53	32,412
604,72	33,558
604,91	33,716
605,10	33,498
605,29	33,940
605,49	30,726
605,68	31,604
605,87	35,269
606,06	32,408
606,25	32,790
606,45	33,609
606,64	31,457
606,83	32,364
607,02	31,549
607,21	34,495
607,40	33,008
607,60	29,308
607,79	30,751
607,98	29,990
608,17	30,534
608,36	30,465
608,55	30,410
608,75	31,030
608,94	29,708
609,13	26,573
609,32	26,764
609,51	28,761
609,70	27,356
609,89	28,710
610,09	28,134
610,28	28,472
610,47	25,719
610,66	26,215
610,85	25,808
611,04	28,302
611,23	26,043
611,43	26,369
611,62	25,831
611,81	27,308
612,00	25,865
612,19	25,781
612,38	26,845
612,57	27,489
612,77	27,049
612,96	27,757
613,15	27,260
613,34	29,357
613,53	28,524
613,72	29,909
613,91	28,230
614,10	29,170
614,29	30,424
614,49	27,405
614,68	27,347
614,87	30,020
615,06	33,514
615,25	27,459
615,44	32,389
615,63	29,725
615,82	29,177
616,01	29,242
616,21	28,683
616,40	31,157
616,59	32,660
616,78	31,182
616,97	32,361
617,16	30,767
617,35	32,589
617,54	30,884
617,73	31,338
617,92	30,209
618,11	32,598
618,31	28,334
618,50	32,126
618,69	31,269
618,88	31,638
619,07	29,409
619,26	29,811
619,45	28,889
619,64	29,195
619,83	28,606
620,02	28,523
620,21	32,333
620,40	31,654
620,59	29,590
620,78	28,913
620,97	30,660
621,17	29,166
621,36	29,305
621,55	29,678
621,74	30,740
621,93	32,208
622,12	30,301
622,31	28,726
622,50	28,743
622,69	32,515
622,88	31,022
623,07	31,756
623,26	31,061
623,45	33,535
623,64	29,685
623,83	29,379
624,02	31,510
624,21	31,479
624,40	31,341
624,59	28,638
624,78	31,514
624,97	33,141
625,16	30,263
625,35	28,446
625,54	29,815
625,73	30,205
625,92	30,269
626,12	32,309
626,31	33,167
626,50	31,908
626,69	32,184
626,88	29,491
627,07	30,248
627,26	31,536
627,45	30,217
627,64	29,807
627,83	31,157
628,02	29,693
628,21	29,245
628,40	29,299
628,59	32,034
628,78	29,850
628,97	29,838
629,16	28,248
629,35	29,762
629,54	33,378
629,73	28,180
629,92	28,539
630,10	29,770
630,29	30,018
630,48	30,440
630,67	29,720
630,86	29,482
631,05	30,521
631,24	31,777
631,43	29,606
631,62	29,569
631,81	30,189
632,00	29,935
632,19	28,337
632,38	30,808
632,57	27,890
632,76	29,814
632,95	30,168
633,14	32,438
633,33	31,443
633,52	29,871
633,71	30,443
633,90	29,892
634,09	29,893
634,28	29,604
634,47	29,382
634,66	30,236
634,85	30,981
635,04	31,966
635,22	29,880
635,41	28,775
635,60	31,119
635,79	30,788
635,98	28,650
636,17	30,777
636,36	30,079
636,55	29,415
636,74	28,452
636,93	31,084
637,12	32,273
637,31	29,432
637,50	29,247
637,69	30,627
637,87	31,610
638,06	30,356
638,25	29,884
638,44	30,364
638,63	28,342
638,82	29,958
639,01	30,695
639,20	31,136
639,39	32,277
639,58	26,809
639,77	28,738
639,95	29,003
640,14	30,782
640,33	29,639
640,52	28,979
640,71	31,207
640,90	30,195
641,09	31,516
641,28	28,544
641,47	30,725
641,66	30,309
641,84	30,197
642,03	28,982
642,22	30,641
642,41	33,437
642,60	30,530
642,79	30,847
642,98	30,579
643,17	29,391
643,35	29,125
643,54	30,323
643,73	30,951
643,92	29,458
644,11	31,005
644,30	28,748
644,49	32,696
644,67	29,829
644,86	29,630
645,05	31,906
645,24	29,580
645,43	30,375
645,62	28,309
645,81	29,679
645,99	32,302
646,18	30,876
646,37	28,979
646,56	30,329
646,75	31,554
646,94	31,598
647,13	28,920
647,31	29,056
647,50	30,195
647,69	31,394
647,88	30,629
648,07	31,457
648,26	32,760
648,44	29,832
648,63	30,109
648,82	30,658
649,01	30,166
649,20	29,144
649,38	29,368
649,57	29,574
649,76	30,101
649,95	30,904
650,14	27,130
650,33	28,654
650,51	30,114
650,70	30,847
650,89	30,419
651,08	29,219
651,27	30,204
651,45	30,278
651,64	27,953
651,83	30,369
652,02	28,897
652,21	30,730
652,39	31,788
652,58	31,814
652,77	31,833
652,96	31,123
653,15	30,485
653,33	32,761
653,52	31,549
653,71	33,643
653,90	32,180
654,09	32,005
654,27	31,514
654,46	32,570
654,65	31,549
654,84	32,274
655,02	32,582
655,21	32,848
655,40	31,811
655,59	31,598
655,77	33,203
655,96	31,513
656,15	32,901
656,34	32,060
656,53	31,124
656,71	30,213
656,90	32,313
657,09	32,044
657,28	32,589
657,46	29,742
657,65	30,926
657,84	30,497
658,03	32,108
658,21	30,839
658,40	29,641
658,59	31,316
658,78	32,640
658,96	30,933
659,15	31,117
659,34	30,600
659,52	30,505
659,71	31,571
659,90	29,133
660,09	30,613
660,27	30,942
660,46	32,060
660,65	29,533
660,84	30,332
661,02	30,661
661,21	31,297
661,40	30,721
661,58	30,031
661,77	30,021
661,96	26,791
662,15	30,188
662,33	28,216
662,52	29,134
662,71	30,251
662,89	30,237
663,08	29,415
663,27	29,998
663,45	29,988
663,64	29,858
663,83	27,341
664,02	29,131
664,20	31,137
664,39	28,109
664,58	30,916
664,76	29,303
664,95	30,900
665,14	30,421
665,32	28,404
665,51	30,518
665,70	31,276
665,88	30,887
666,07	29,638
666,26	31,884
666,44	31,393
666,63	29,378
666,82	28,972
667,00	29,582
667,19	27,219
667,38	30,578
667,56	31,949
667,75	29,174
667,94	30,610
668,12	28,004
668,31	30,715
668,50	30,297
668,68	30,604
668,87	29,089
669,06	29,924
669,24	30,128
669,43	30,773
669,62	27,391
669,80	28,491
669,99	29,659
670,18	30,915
670,36	29,301
670,55	29,834
670,74	30,725
670,92	27,472
671,11	31,508
671,29	29,507
671,48	29,236
671,67	30,051
671,85	30,695
672,04	29,213
672,23	27,593
672,41	29,375
672,60	30,882
672,78	29,742
672,97	31,010
673,16	30,888
673,34	29,624
673,53	29,208
673,71	29,838
673,90	31,891
674,09	29,523
674,27	29,151
674,46	31,258
674,64	28,915
674,83	30,260
675,02	27,493
675,20	30,461
675,39	30,416
675,57	32,358
675,76	28,186
675,95	31,824
676,13	30,596
676,32	30,795
676,50	29,793
676,69	28,681
676,88	30,089
677,06	30,646
677,25	29,524
677,43	33,146
677,62	29,430
677,80	31,220
677,99	30,032
678,18	31,281
678,36	31,702
678,55	29,053
678,73	29,446
678,92	30,658
679,10	30,413
679,29	30,259
679,48	28,337
679,66	29,941
679,85	29,979
680,03	30,291
680,22	31,188
680,40	28,145
680,59	29,854
680,77	31,194
680,96	29,913
681,15	29,415
681,33	30,957
681,52	29,410
681,70	30,247
681,89	31,704
682,07	29,645
682,26	28,846
682,44	30,199
682,63	30,424
682,81	30,806
683,00	29,151
683,18	28,509
683,37	31,956
683,55	29,566
683,74	31,128
683,92	34,310
684,11	30,992
684,29	29,129
684,48	28,422
684,67	28,267
684,85	28,951
685,04	30,320
685,22	29,737
685,41	30,016
685,59	30,782
685,78	29,599
685,96	29,227
686,15	28,220
686,33	28,879
686,52	28,964
686,70	30,197
686,89	30,510
687,07	31,195
687,26	30,139
687,44	31,293
687,62	28,068
687,81	30,208
687,99	30,055
688,18	30,076
688,36	30,384
688,55	30,533
688,73	29,014
688,92	28,428
689,10	29,834
689,29	28,654
689,47	31,711
689,66	29,585
689,84	29,357
690,03	31,798
690,21	28,360
690,40	30,284
690,58	27,965
690,76	28,153
690,95	31,106
691,13	28,457
691,32	30,459
691,50	30,801
691,69	30,682
691,87	29,133
692,06	27,739
692,24	28,047
692,43	29,708
692,61	29,492
692,79	28,610
692,98	28,144
693,16	32,117
693,35	29,223
693,53	29,515
693,72	30,817
693,90	31,748
694,08	29,670
694,27	28,845
694,45	31,892
694,64	32,023
694,82	29,249
695,01	27,940
695,19	30,153
695,37	27,949
695,56	29,353
695,74	30,299
695,93	31,236
696,11	28,526
696,29	29,354
696,48	29,557
696,66	31,984
696,85	30,732
697,03	28,810
697,21	30,766
697,40	29,301
697,58	29,705
697,77	27,544
697,95	29,771
698,13	31,109
698,32	30,059
698,50	29,339
698,69	28,295
698,87	30,551
699,05	30,680
699,24	29,335
699,42	30,208
699,60	27,624
699,79	28,258
699,97	28,789
700,16	27,276
700,34	30,884
700,52	29,084
700,71	28,607
700,89	28,566
701,07	29,977
701,26	29,621
701,44	28,611
701,63	26,381
701,81	29,361
701,99	29,832
702,18	28,121
702,36	28,123
702,54	28,917
702,73	28,765
702,91	28,110
703,09	28,399
703,28	28,185
703,46	30,571
703,64	29,660
703,83	28,794
704,01	29,819
704,19	27,062
704,38	27,805
704,56	27,401
704,74	30,584
704,93	28,361
705,11	29,598
705,29	28,234
705,48	32,690
705,66	30,359
705,84	29,515
706,03	26,232
706,21	30,834
706,39	29,230
706,58	28,321
706,76	29,492
706,94	31,679
707,12	30,241
707,31	27,615
707,49	29,073
707,67	28,689
707,86	29,627
708,04	27,806
708,22	27,981
708,41	30,474
708,59	30,212
708,77	25,836
708,95	30,409
709,14	33,434
709,32	31,148
709,50	27,132
709,69	29,004
709,87	29,570
710,05	29,952
710,23	28,577
710,42	27,551
710,60	28,758
710,78	30,716
710,97	28,606
711,15	28,280
711,33	30,286
711,51	26,972
711,70	26,951
711,88	29,352
712,06	32,534
712,24	28,749
712,43	28,337
712,61	26,894
712,79	28,690
712,97	28,048
713,16	29,926
713,34	28,673
713,52	31,461
713,70	28,963
713,89	28,977
714,07	29,743
714,25	29,960
714,43	29,669
714,62	28,384
714,80	29,561
714,98	27,158
715,16	30,755
715,35	26,960
715,53	28,656
715,71	30,626
715,89	30,773
716,07	28,594
716,26	33,930
716,44	30,544
716,62	29,121
716,80	29,810
716,99	30,273
717,17	30,202
717,35	30,138
717,53	28,822
717,71	27,852
717,90	29,558
718,08	28,602
718,26	28,153
718,44	29,142
718,62	31,320
718,81	30,471
718,99	28,893
719,17	29,499
719,35	29,680
719,53	29,789
719,72	29,198
719,90	30,002
720,08	27,924
720,26	30,293
720,44	26,064
720,62	29,894
720,81	30,112
720,99	30,770
721,17	29,099
721,35	29,917
721,53	29,775
721,72	31,094
721,90	29,265
722,08	27,958
722,26	32,841
722,44	29,928
722,62	28,592
722,81	29,616
722,99	28,324
723,17	30,620
723,35	28,351
723,53	30,710
723,71	30,033
723,89	31,457
724,08	25,932
724,26	26,556
724,44	28,469
724,62	29,042
724,80	28,993
724,98	28,780
725,16	31,794
725,35	29,788
725,53	28,662
725,71	28,005
725,89	30,526
726,07	30,312
726,25	30,200
726,43	27,646
726,61	30,832
726,80	30,494
726,98	27,899
727,16	28,451
727,34	32,033
727,52	29,082
727,70	28,064
727,88	28,529
728,06	27,082
728,25	28,738
728,43	29,858
728,61	28,510
728,79	29,456
728,97	29,906
729,15	29,361
729,33	30,413
729,51	29,930
729,69	30,366
729,87	27,032
730,06	28,929
730,24	28,525
730,42	29,889
730,60	27,343
730,78	30,665
730,96	28,185
731,14	28,637
731,32	29,524
731,50	26,846
731,68	30,895
731,86	30,684
732,04	29,039
732,22	28,762
732,41	33,330
732,59	28,857
732,77	29,958
732,95	31,227
733,13	30,812
733,31	31,015
733,49	26,584
733,67	30,140
733,85	29,525
734,03	29,633
734,21	29,230
734,39	29,855
734,57	31,941
734,75	30,230
734,93	27,236
735,11	29,621
735,29	28,174
735,47	31,397
735,65	28,077
735,84	27,092
736,02	30,329
736,20	31,857
736,38	28,261
736,56	29,276
736,74	28,649
736,92	29,210
737,10	28,443
737,28	28,704
737,46	29,149
737,64	28,880
737,82	28,458
738,00	31,294
738,18	31,812
738,36	29,512
738,54	30,284
738,72	27,616
738,90	28,225
739,08	29,042
739,26	27,638
739,44	28,803
739,62	30,943
739,80	30,878
739,98	28,240
740,16	28,387
740,34	29,618
740,52	30,883
740,70	28,721
740,88	28,012
741,06	29,298
741,24	30,961
741,42	29,293
741,60	27,385
741,78	29,556
741,96	30,148
742,14	28,584
742,32	27,570
742,50	29,104
742,68	30,824
742,86	29,231
743,04	27,875
743,21	32,475
743,39	31,329
743,57	30,257
743,75	31,112
743,93	27,456
744,11	27,364
744,29	26,643
744,47	29,402
744,65	29,502
744,83	28,434
745,01	28,593
745,19	31,093
745,37	29,332
745,55	30,895
745,73	29,506
745,91	28,574
746,09	28,648
746,27	28,243
746,45	27,619
746,62	29,177
746,80	29,717
746,98	30,006
747,16	27,543
747,34	29,538
747,52	28,752
747,70	29,997
747,88	29,471
748,06	28,999
748,24	29,756
748,42	30,984
748,60	29,261
748,78	29,134
748,95	30,778
749,13	33,662
749,31	30,040
749,49	28,753
749,67	31,063
749,85	31,921
750,03	27,824
750,21	28,874
750,39	29,494
750,57	30,409
750,74	28,959
750,92	27,275
751,10	30,151
751,28	27,247
751,46	29,818
751,64	30,504
751,82	30,144
752,00	29,006
752,17	30,642
752,35	29,147
752,53	30,816
752,71	30,512
752,89	28,723
753,07	28,486
753,25	29,481
753,43	27,915
753,60	32,220
753,78	28,616
753,96	31,589
754,14	29,366
754,32	28,418
754,50	29,793
754,68	32,814
754,85	31,086
755,03	28,924
755,21	28,747
755,39	33,099
755,57	29,209
755,75	29,334
755,92	29,672
756,10	30,448
756,28	30,826
756,46	28,544
756,64	29,637
756,82	31,464
756,99	31,192
757,17	29,543
757,35	28,899
757,53	32,358
757,71	30,610
757,89	29,370
758,06	29,497
758,24	29,753
758,42	31,278
758,60	28,040
758,78	29,356
758,95	30,681
759,13	30,587
759,31	28,606
759,49	29,565
759,67	30,396
759,84	30,202
760,02	29,696
760,20	29,893
760,38	29,345
760,56	26,273
760,73	30,700
760,91	30,154
761,09	32,138
761,27	27,766
761,45	29,144
761,62	28,502
761,80	30,336
761,98	30,104
762,16	30,375
762,33	28,328
762,51	30,957
762,69	30,686
762,87	28,661
763,05	29,216
763,22	28,064
763,40	28,210
763,58	27,614
763,76	29,718
763,93	31,465
764,11	30,339
764,29	29,225
764,47	30,542
764,64	29,999
764,82	30,882
765,00	29,358
765,18	26,371
765,35	30,500
765,53	31,484
765,71	30,797
765,89	29,032
766,06	30,350
766,24	31,464
766,42	30,808
766,60	28,252
766,77	29,668
766,95	30,649
767,13	30,658
767,30	28,958
767,48	28,797
767,66	27,674
767,84	28,628
768,01	28,756
768,19	30,846
768,37	28,252
768,54	28,622
768,72	30,713
768,90	28,361
769,08	30,405
769,25	29,018
769,43	28,763
769,61	27,873
769,78	30,590
769,96	29,943
770,14	30,922
770,31	31,576
770,49	31,885
770,67	30,420
770,85	28,392
771,02	31,659
771,20	27,248
771,38	30,341
771,55	28,534
771,73	28,677
771,91	27,466
772,08	31,914
772,26	29,760
772,44	29,814
772,61	28,735
772,79	31,393
772,97	28,942
773,14	26,866
773,32	30,604
773,50	27,566
773,67	30,739
773,85	32,850
774,03	33,675
774,20	31,800
774,38	29,526
774,56	27,697
774,73	30,163
774,91	30,836
775,09	29,274
775,26	29,389
775,44	29,774
775,61	30,409
775,79	27,863
775,97	31,863
776,14	28,628
776,32	28,829
776,50	30,443
776,67	28,986
776,85	31,903
777,03	26,512
777,20	30,459
777,38	30,967
777,55	30,050
777,73	27,483
777,91	29,146
778,08	29,773
778,26	28,957
778,43	29,659
778,61	27,600
778,79	30,037
778,96	27,427
779,14	28,409
779,32	30,731
779,49	31,071
779,67	31,216
779,84	29,553
780,02	32,093
780,20	28,783
780,37	30,350
780,55	24,671
780,72	30,904
780,90	31,369
781,07	30,193
781,25	31,307
781,43	29,460
781,60	30,997
781,78	30,122
781,95	31,784
782,13	30,908
782,30	31,691
782,48	29,880
782,66	29,000
782,83	27,800
783,01	34,833
783,18	31,194
783,36	31,777
783,53	32,435
783,71	28,970
783,89	30,776
784,06	32,762
784,24	28,879
784,41	32,567
784,59	28,851
784,76	31,587
784,94	28,345
785,11	31,546
785,29	30,948
785,46	31,410
785,64	29,334
785,82	29,149
785,99	31,947
786,17	31,572
786,34	28,406
786,52	32,908
786,69	32,907
786,87	30,092
787,04	29,980
787,22	28,912
787,39	30,877
787,57	33,078
787,74	30,267
787,92	35,317
788,09	30,877
788,27	29,999
788,44	28,229
788,62	32,371
788,79	30,058
788,97	28,771
789,14	28,128
789,32	29,402
789,49	30,241
789,67	30,977
789,84	26,731
790,02	31,918
790,19	29,820
790,37	31,831
790,54	29,741
790,72	35,695
790,89	33,219
791,07	32,997
791,24	27,411
791,42	32,346
791,59	32,900
791,77	28,621
791,94	29,942
792,12	30,719
792,29	30,960
792,47	30,867
792,64	33,849
792,81	33,486
792,99	30,262
793,16	33,214
793,34	32,990
793,51	32,442
793,69	34,519
793,86	31,350
794,04	30,712
794,21	33,057
794,39	27,526
794,56	29,420
794,73	30,640
794,91	33,380
795,08	31,711
795,26	29,507
795,43	31,406
795,61	32,263
795,78	32,790
795,95	33,688
796,13	32,460
796,30	31,751
796,48	31,915
796,65	32,009
796,83	33,219
797,00	35,877
797,17	28,043
797,35	31,146
797,52	31,843
797,70	35,588
797,87	28,021
798,04	27,854
798,22	30,703
798,39	34,902
798,57	33,310
798,74	32,837
798,91	29,654
799,09	30,197
799,26	35,477
799,44	32,355
799,61	31,498
799,78	31,178
799,96	34,792
800,13	31,776
800,31	29,617
800,48	31,224
800,65	36,141
800,83	30,514
801,00	30,528
801,17	33,357
801,35	33,125
801,52	32,522
801,70	32,576
801,87	31,020
802,04	33,747
802,22	28,946
802,39	33,555
802,56	34,754
802,74	34,122
802,91	27,810
803,08	28,768
803,26	31,826
803,43	34,645
803,61	33,835
803,78	32,888
803,95	32,120
804,13	32,945
804,30	29,759
804,47	33,829
804,65	34,795
804,82	32,089
804,99	33,998
805,17	29,237
805,34	36,521
805,51	35,944
805,69	29,916
805,86	30,376
806,03	41,194
806,21	31,496
806,38	29,926
806,55	35,137
806,72	36,160
806,90	36,067
807,07	32,717
807,24	30,962
807,42	33,781
807,59	33,598
807,76	26,798
807,94	31,088
808,11	35,270
808,28	34,786
808,45	31,822
808,63	28,571
808,80	34,503
808,97	35,380
809,15	30,908
809,32	32,817
809,49	31,939
809,67	30,424
809,84	34,383
810,01	34,503
810,18	35,636
810,36	36,430
810,53	34,275
810,70	32,592
810,87	36,215
811,05	31,792
811,22	37,844
811,39	28,349
811,57	34,301
811,74	37,075
811,91	29,605
812,08	33,339
812,26	28,514
812,43	32,452
812,60	32,010
812,77	32,868
812,95	32,363
813,12	35,450
813,29	30,790
813,46	34,707
813,64	32,671
813,81	34,452
813,98	31,689
814,15	32,721
814,32	37,043
814,50	36,433
814,67	34,544
814,84	29,986
815,01	36,334
815,19	27,289
815,36	29,095
815,53	31,915
815,70	33,207
815,87	34,501
816,05	31,538
816,22	36,362
816,39	34,651
816,56	37,955
816,74	34,512
816,91	31,830
817,08	40,278
817,25	35,477
817,42	29,761
817,60	32,014
817,77	38,402
817,94	34,893
818,11	36,632
818,28	33,958
818,45	33,875
818,63	34,385
818,80	29,160
818,97	30,816
819,14	38,525
819,31	40,774
819,49	37,007
819,66	36,094
819,83	32,770
820,00	33,239
820,17	32,171
820,34	35,076
820,52	39,689
820,69	35,236
820,86	33,295
821,03	34,459
821,20	36,898
821,37	34,802
821,55	26,873
821,72	27,376
821,89	36,069
822,06	39,654
822,23	30,297
822,40	35,914
822,57	37,402
822,75	44,550
822,92	29,543
823,09	35,811
823,26	38,426
823,43	42,653
823,60	30,765
823,77	33,462
823,94	34,604
824,12	38,971
824,29	31,438
824,46	34,563
824,63	38,381
824,80	39,313
824,97	35,649
825,14	33,130
825,31	41,291
825,49	37,782
825,66	30,316
825,83	32,885
826,00	34,065
826,17	43,246
826,34	35,467
826,51	28,836
826,68	32,977
826,85	36,142
827,02	33,043
827,20	27,022
827,37	40,195
827,54	38,293
827,71	30,332
827,88	35,169
828,05	40,668
828,22	32,097
828,39	32,993
828,56	43,956
828,73	36,386
828,90	43,043
829,07	32,597
829,25	43,786
829,42	35,319
829,59	29,901
829,76	38,474
829,93	31,660
830,10	40,867
830,27	36,263
830,44	34,474
830,61	34,193
830,78	41,811
830,95	34,008
831,12	31,723
831,29	36,703
831,46	36,754
831,63	33,148
831,80	35,489
831,97	35,296
832,14	42,807
832,31	42,163
832,48	33,464
832,65	33,866
832,83	33,261
833,00	43,530
833,17	33,301
833,34	37,796
833,51	38,158
833,68	43,223
833,85	45,475
834,02	29,370
834,19	36,774
834,36	42,885
834,53	25,387
834,70	34,181
834,87	45,691
835,04	35,867
835,21	33,160
835,38	31,891
835,55	42,384
835,72	53,456
835,89	36,981
836,06	37,864
836,23	44,500
836,40	34,595
836,57	38,035
836,74	43,197
836,91	41,660
837,08	40,822
837,25	33,183
837,42	33,767
837,59	35,225
837,76	39,196
837,93	37,248
838,09	33,706
838,26	38,861
838,43	44,380
838,60	34,459
838,77	35,611
838,94	42,777
839,11	37,415
839,28	36,687
839,45	33,584
839,62	36,029
839,79	39,983
839,96	43,110
840,13	33,979
840,30	37,108
840,47	30,143
840,64	33,596
840,81	37,457
840,98	34,651
841,15	46,962
841,32	28,214
841,48	44,259
841,65	44,807
841,82	40,883
841,99	37,237
842,16	31,418
842,33	41,837
842,50	42,643
842,67	37,069
842,84	38,634
843,01	46,560
843,18	37,150
843,35	30,712
843,52	31,665
843,68	43,853
843,85	43,080
844,02	26,641
844,19	32,344
844,36	43,260
844,53	39,445
844,70	37,016
844,87	46,161
845,04	36,978
845,21	36,410
845,37	45,889
845,54	41,012
845,71	33,470
845,88	49,884
846,05	35,552
846,22	24,769
846,39	43,065
846,56	51,511
846,72	22,984
846,89	38,600
847,06	54,334
847,23	55,836
847,40	32,785
847,57	33,139
847,74	45,571
847,90	50,267
848,07	32,436
848,24	39,776
848,41	38,174
848,58	49,635
848,75	38,997
848,92	34,671
849,08	37,992
849,25	41,223
849,42	26,057
849,59	41,450
849,76	36,413
849,93	36,842
850,09	41,986
850,26	33,023
850,43	52,786
850,60	35,553
850,77	42,130
850,94	43,771
851,10	42,308
851,27	40,282
851,44	30,550
851,61	33,683
851,78	48,375
851,95	36,053
852,11	30,057
852,28	34,546
852,45	42,548
852,62	43,085
852,79	33,115
852,95	33,509
853,12	53,062
853,29	35,916
853,46	38,181
853,63	40,753
853,79	39,164
853,96	32,879
854,13	40,040
854,30	33,351
854,46	60,137
854,63	50,813
854,80	42,356
854,97	35,357
855,14	57,724
855,30	47,167
855,47	40,733
855,64	40,917
855,81	45,806
855,97	54,254
856,14	42,313
856,31	31,169
856,48	53,300
856,65	67,305
856,81	33,982
856,98	29,150
857,15	40,071
857,32	49,656
857,48	31,481
857,65	50,685
857,82	45,612
857,99	54,035
858,15	45,380
858,32	44,075
858,49	36,892
858,65	66,161
858,82	44,107
858,99	42,918
859,16	58,446
859,32	50,487
859,49	38,530
859,66	35,759
859,83	50,652
859,99	39,499
860,16	40,459
860,33	38,472
860,49	49,871
860,66	56,035
860,83	38,108
861,00	36,382
861,16	51,055
861,33	56,447
861,50	40,123
861,66	39,319
861,83	76,702
862,00	57,248
862,16	37,745
862,33	48,473
862,50	82,887
862,67	32,106
862,83	31,019
863,00	48,708
863,17	68,081
863,33	46,681
863,50	15,892
863,67	31,478
863,83	53,102
864,00	44,189
864,17	31,711
864,33	33,502
864,50	61,505
864,67	35,881
864,83	50,390
865,00	38,196
865,17	36,680
865,33	68,368
865,50	20,755
865,67	33,243
865,83	54,618
866,00	77,165
866,17	56,247
866,33	37,666
866,50	71,960
866,66	50,558
866,83	43,969
867,00	55,136
867,16	60,977
867,33	66,108
867,50	10,302
867,66	33,435
867,83	81,055
868,00	56,638
868,16	45,934
868,33	45,733
868,49	65,365
868,66	70,017
868,83	41,633
868,99	59,049
869,16	63,549
869,32	77,846
869,49	52,090
869,66	18,484
869,82	61,601
869,99	91,579
870,15	27,678
870,32	51,472
870,49	57,971
870,65	96,260
870,82	38,192
870,98	41,472
871,15	99,800
871,32	59,562
871,48	13,739
871,65	31,753
871,81	60,890
871,98	30,447
872,15	42,697
872,31	38,225
872,48	101,598
872,64	64,352
872,81	27,772
872,97	47,911
873,14	74,509
873,31	77,361
873,47	47,786
873,64	53,343
873,80	93,011
873,97	83,046
874,13	7,492
874,30	64,935
874,46	103,443
874,63	45,471
874,80	38,993
874,96	32,144
875,13	91,187
875,29	42,783
875,46	88,027
875,62	55,427
875,79	79,500
875,95	61,063
876,12	43,614
876,28	15,584
876,45	122,990
876,61	64,478
876,78	46,969
876,94	31,775
877,11	75,909
877,27	79,888
877,44	74,249
877,60	30,106
877,77	59,122
877,94	117,697
878,10	56,005
878,27	71,953
878,43	130,655
878,60	54,735
878,76	56,731
878,93	24,517
879,09	84,126
879,26	114,903
879,42	78,650
879,58	53,400
879,75	73,457
879,91	92,747
880,08	-27,765
880,24	42,862
880,41	77,243
880,57	89,327
880,74	26,389
880,90	50,409
881,07	59,911
881,23	92,425
881,40	75,289
881,56	95,684
881,73	113,555
881,89	89,559
882,06	10,538
882,22	106,866
882,38	146,520
882,55	131,106
882,71	103,949
882,88	47,495
883,04	125,506
883,21	169,057
883,37	39,982
883,54	47,053
883,70	250,246
883,86	76,908
884,03	92,085
884,19	34,288
884,36	131,120
884,52	193,268
884,69	60,786
884,85	50,834
885,01	217,584
885,18	143,243
885,34	27,218
885,51	-23,434
885,67	60,934
>>>>> Data<<<<< Espectral Procesado Extremo
