Fichero De Datos De SpectraSuite
++++++++++++++++++++++++++++++++++++
Fecha: Wed Apr 22 11:53:35 CEST 2009
Usuario: evoflor
Presente Oscuro Del Espectro: Sí
La Referencia de Presente Del Espectro De: Sí
Muestreados de los componentes de Número de espectros: 1
Espectrómetros: USB4F02353
Tiempo de integración (usec): 500000 (USB4F02353)
Promedio de Espectros Hechos un: 5 (USB4F02353)
El Alisar Del Furgón: 0 (USB4F02353)
Párrafo de de Corregir del la del del de Eléctrica del obscuridad: Sí (USB4F02353)
Estrobo/Lámpara Permitido: No (USB4F02353)
Correct for Detector Non-linearity: No (USB4F02353)
Párrafo de de Corregir del la del del de Externa del luz: No (USB4F02353)
Procesado del espectro de Número de pixeles en: 3648
>>>>> Comienza Data<<<<< Espectral Procesado Del EL
177,79	276,881
178,00	276,881
178,22	276,881
178,44	1160,604
178,66	-280,146
178,88	235,554
179,09	-259,085
179,31	173,191
179,53	522,864
179,75	237,605
179,96	1696,422
180,18	-237,185
180,40	397,404
180,62	321,446
180,83	-101,715
181,05	-1433,963
181,27	-64485,000
181,49	43,728
181,70	161,481
181,92	615,152
182,14	514,111
182,36	172,686
182,58	795,150
182,79	995,022
183,01	2,595
183,23	187,812
183,45	-289,800
183,66	-153,916
183,88	585,794
184,10	-2530,636
184,32	164,072
184,53	147,811
184,75	-141,118
184,97	13,868
185,18	-190,573
185,40	-582,620
185,62	176,005
185,84	97,566
186,05	215,556
186,27	-63,977
186,49	4764,808
186,71	3,792
186,92	100,828
187,14	-203,148
187,36	150,649
187,58	90,144
187,79	-26,877
188,01	305,541
188,23	-262,457
188,45	139,413
188,66	191,451
188,88	-2645,182
189,10	-1382,850
189,31	-160,725
189,53	145,593
189,75	316,330
189,97	324,173
190,18	-321,953
190,40	617,559
190,62	-53,615
190,83	-184,990
191,05	71,041
191,27	238,243
191,49	348,973
191,70	-162,909
191,92	-889,703
192,14	-26,896
192,35	584,045
192,57	1971,000
192,79	-58,490
193,01	50,785
193,22	122,820
193,44	-5,606
193,66	72,191
193,87	-12,238
194,09	12,095
194,31	76,314
194,53	255,839
194,74	220,137
194,96	-1,554
195,18	152,480
195,39	-310,251
195,61	-63,289
195,83	-296,707
196,04	100,456
196,26	-43,643
196,48	87,924
196,70	235,557
196,91	204,877
197,13	261,228
197,35	-35,438
197,56	534,009
197,78	1508,843
198,00	312,483
198,21	518,374
198,43	-777,820
198,65	161,591
198,86	309,658
199,08	267,492
199,30	329,119
199,51	-192,459
199,73	203,688
199,95	257,636
200,16	483,404
200,38	41,481
200,60	192,133
200,81	271,060
201,03	202,133
201,25	-1319,850
201,46	211,302
201,68	110,825
201,90	1015,568
202,11	-108,721
202,33	169,093
202,55	423,563
202,76	-57,305
202,98	155,697
203,20	-89,351
203,41	6,395
203,63	147,392
203,85	-114885,000
204,06	-6,995
204,28	-112,012
204,50	105,059
204,71	323,825
204,93	220,680
205,15	-3,660
205,36	-171,482
205,58	153,138
205,80	-162,048
206,01	39,461
206,23	123,830
206,45	356,074
206,66	154,683
206,88	-20,647
207,10	138,375
207,31	387,000
207,53	320,529
207,75	76,059
207,96	877,500
208,18	-133,080
208,39	119,364
208,61	2125,286
208,83	-365,065
209,04	272,987
209,26	18,041
209,48	28,002
209,69	224,492
209,91	500,625
210,13	65,815
210,34	27,567
210,56	164,487
210,77	-1159,724
210,99	152,517
211,21	8346,176
211,42	-192,679
211,64	15,079
211,86	186,555
212,07	270,065
212,29	275,997
212,50	118,520
212,72	26,481
212,94	114,785
213,15	167,196
213,37	58,504
213,58	-288,659
213,80	-1628,036
214,02	14275,588
214,23	316,396
214,45	305,852
214,67	925,793
214,88	10,117
215,10	-386,065
215,31	-75,360
215,53	27,920
215,75	113,713
215,96	1529,720
216,18	-676,268
216,39	236,140
216,61	189,924
216,83	-89,799
217,04	1108,820
217,26	-44,056
217,47	150,948
217,69	340,028
217,91	223,492
218,12	-66285,000
218,34	127,620
218,55	314,284
218,77	14,641
218,99	138,562
219,20	-237,814
219,42	419,337
219,63	167,623
219,85	59,105
220,06	303,404
220,28	223,643
220,50	61,043
220,71	97,765
220,93	2660,094
221,14	-1913,850
221,36	-56,185
221,58	8,755
221,79	252,022
222,01	1099,009
222,22	791,349
222,44	552,640
222,65	85,189
222,87	400,594
223,09	137,144
223,30	76,355
223,52	220,961
223,73	165,651
223,95	19,838
224,16	311,103
224,38	90,960
224,60	45,945
224,81	66,090
225,03	48,221
225,24	145,805
225,46	134,028
225,67	3,954
225,89	50,242
226,10	327,063
226,32	40,680
226,54	21,083
226,75	4,799
226,97	147,015
227,18	114,916
227,40	39,789
227,61	66,146
227,83	44,913
228,04	167,041
228,26	37,811
228,47	44,776
228,69	229,244
228,91	131,961
229,12	107,593
229,34	38,321
229,55	46,396
229,77	44,924
229,98	25,086
230,20	80,885
230,41	-5,569
230,63	80,916
230,84	-9,794
231,06	40,440
231,27	23,778
231,49	44,386
231,71	5,142
231,92	45,142
232,14	18,824
232,35	69,521
232,57	55,956
232,78	44,985
233,00	48,991
233,21	41,323
233,43	10,974
233,64	-5,825
233,86	54,134
234,07	39,212
234,29	18,068
234,50	-0,549
234,72	37,421
234,93	21,288
235,15	6,822
235,36	30,246
235,58	24,594
235,79	52,529
236,01	20,644
236,22	8,732
236,44	43,000
236,65	28,636
236,87	18,255
237,08	7,808
237,30	-0,947
237,51	27,771
237,73	-1,824
237,94	14,241
238,16	14,505
238,37	18,234
238,59	16,084
238,80	5,058
239,02	4,010
239,23	21,858
239,45	-4,195
239,66	17,232
239,88	27,457
240,09	26,882
240,31	11,917
240,52	9,067
240,74	11,315
240,95	16,806
241,17	9,133
241,38	8,453
241,60	10,309
241,81	28,869
242,03	8,124
242,24	13,822
242,46	23,842
242,67	0,365
242,89	14,829
243,10	11,369
243,32	17,047
243,53	11,698
243,75	4,457
243,96	7,998
244,18	10,674
244,39	12,668
244,60	9,290
244,82	2,367
245,03	18,349
245,25	11,295
245,46	30,574
245,68	4,683
245,89	13,526
246,11	11,999
246,32	7,466
246,54	9,335
246,75	8,028
246,97	9,454
247,18	20,065
247,39	4,463
247,61	12,480
247,82	1,564
248,04	4,721
248,25	10,240
248,47	7,872
248,68	11,707
248,90	5,268
249,11	9,539
249,33	19,776
249,54	9,244
249,75	6,738
249,97	5,611
250,18	9,644
250,40	14,205
250,61	-7,331
250,83	1,950
251,04	2,747
251,25	14,922
251,47	4,158
251,68	11,691
251,90	9,398
252,11	12,072
252,33	3,403
252,54	5,459
252,76	9,938
252,97	8,889
253,18	1,003
253,40	2,812
253,61	3,974
253,83	11,910
254,04	7,934
254,25	9,754
254,47	5,770
254,68	11,812
254,90	5,178
255,11	9,473
255,33	5,190
255,54	3,597
255,75	2,356
255,97	10,348
256,18	3,948
256,40	5,138
256,61	9,985
256,82	-2,812
257,04	12,281
257,25	3,741
257,47	8,340
257,68	2,887
257,89	11,883
258,11	8,966
258,32	5,964
258,54	6,772
258,75	6,473
258,96	12,702
259,18	7,056
259,39	6,085
259,61	7,627
259,82	6,616
260,03	7,359
260,25	10,266
260,46	-1,362
260,68	3,947
260,89	7,946
261,10	4,723
261,32	6,599
261,53	4,046
261,75	11,053
261,96	-0,514
262,17	8,997
262,39	10,241
262,60	4,095
262,81	1,065
263,03	12,651
263,24	5,228
263,46	3,512
263,67	5,763
263,88	6,729
264,10	7,875
264,31	2,847
264,52	7,746
264,74	5,562
264,95	5,260
265,17	6,585
265,38	6,110
265,59	8,001
265,81	7,055
266,02	1,221
266,23	1,406
266,45	11,933
266,66	13,738
266,87	7,120
267,09	-0,093
267,30	12,515
267,52	8,433
267,73	7,246
267,94	4,969
268,16	8,196
268,37	5,006
268,58	7,260
268,80	2,090
269,01	4,654
269,22	7,010
269,44	7,115
269,65	5,772
269,86	3,751
270,08	4,950
270,29	3,356
270,50	3,905
270,72	9,447
270,93	5,015
271,14	1,375
271,36	4,720
271,57	5,681
271,78	6,626
272,00	8,108
272,21	8,166
272,42	8,448
272,64	9,463
272,85	3,176
273,06	2,104
273,28	7,307
273,49	5,442
273,70	8,688
273,92	7,158
274,13	6,116
274,34	4,119
274,56	6,188
274,77	4,865
274,98	8,855
275,20	9,007
275,41	6,694
275,62	4,611
275,84	4,935
276,05	12,996
276,26	6,652
276,47	0,377
276,69	6,974
276,90	8,398
277,11	3,744
277,33	4,532
277,54	9,351
277,75	5,313
277,97	3,522
278,18	4,222
278,39	3,993
278,61	1,350
278,82	8,410
279,03	4,540
279,24	7,975
279,46	4,842
279,67	7,732
279,88	3,925
280,10	7,950
280,31	0,734
280,52	6,310
280,73	2,790
280,95	7,093
281,16	7,391
281,37	6,311
281,59	6,291
281,80	11,108
282,01	3,538
282,22	1,578
282,44	3,312
282,65	11,005
282,86	9,327
283,08	4,583
283,29	5,695
283,50	4,393
283,71	6,499
283,93	9,296
284,14	8,749
284,35	4,023
284,56	4,188
284,78	1,794
284,99	5,029
285,20	8,720
285,42	5,550
285,63	5,111
285,84	-0,011
286,05	2,332
286,27	4,110
286,48	4,689
286,69	2,942
286,90	5,016
287,12	4,979
287,33	3,725
287,54	3,489
287,75	6,956
287,97	6,207
288,18	5,642
288,39	1,350
288,60	6,374
288,82	6,616
289,03	5,125
289,24	6,438
289,45	8,420
289,67	4,485
289,88	3,370
290,09	6,821
290,30	5,435
290,52	5,083
290,73	5,778
290,94	0,842
291,15	5,539
291,37	5,696
291,58	4,359
291,79	5,675
292,00	6,093
292,21	5,622
292,43	5,260
292,64	3,949
292,85	3,794
293,06	9,539
293,28	4,434
293,49	0,915
293,70	6,744
293,91	3,868
294,12	4,872
294,34	4,824
294,55	3,972
294,76	4,571
294,97	8,353
295,19	0,662
295,40	6,008
295,61	5,690
295,82	1,331
296,03	5,757
296,25	7,214
296,46	4,592
296,67	0,999
296,88	1,029
297,09	7,191
297,31	4,131
297,52	3,450
297,73	3,232
297,94	8,407
298,15	5,931
298,37	5,532
298,58	6,752
298,79	7,490
299,00	3,571
299,21	5,010
299,43	3,833
299,64	10,150
299,85	6,213
300,06	2,327
300,27	2,877
300,49	9,457
300,70	3,097
300,91	3,472
301,12	5,659
301,33	5,657
301,54	4,360
301,76	6,142
301,97	1,835
302,18	2,529
302,39	6,896
302,60	15,191
302,82	5,198
303,03	7,388
303,24	6,057
303,45	5,905
303,66	6,078
303,87	6,418
304,09	7,119
304,30	1,960
304,51	3,521
304,72	4,150
304,93	7,572
305,14	4,925
305,36	2,943
305,57	0,598
305,78	3,826
305,99	3,329
306,20	5,626
306,41	3,921
306,62	1,160
306,84	3,997
307,05	2,830
307,26	5,745
307,47	9,616
307,68	5,239
307,89	4,607
308,11	5,485
308,32	4,083
308,53	5,699
308,74	3,980
308,95	6,155
309,16	6,197
309,37	8,300
309,59	1,058
309,80	6,127
310,01	6,793
310,22	6,207
310,43	4,846
310,64	6,509
310,85	7,583
311,06	4,319
311,28	5,880
311,49	4,204
311,70	6,278
311,91	2,588
312,12	4,659
312,33	4,867
312,54	3,953
312,75	4,095
312,97	2,935
313,18	6,939
313,39	4,032
313,60	2,222
313,81	5,081
314,02	7,506
314,23	7,948
314,44	2,474
314,65	3,497
314,87	3,076
315,08	2,306
315,29	5,833
315,50	5,678
315,71	6,660
315,92	5,954
316,13	6,024
316,34	5,714
316,55	7,201
316,77	0,395
316,98	3,023
317,19	3,762
317,40	9,879
317,61	9,149
317,82	2,100
318,03	2,233
318,24	4,926
318,45	8,150
318,66	4,001
318,87	0,993
319,09	5,836
319,30	5,052
319,51	6,504
319,72	7,149
319,93	7,797
320,14	8,421
320,35	6,400
320,56	3,492
320,77	2,829
320,98	9,582
321,19	6,527
321,40	4,493
321,62	5,668
321,83	4,355
322,04	3,743
322,25	5,763
322,46	5,423
322,67	6,028
322,88	4,029
323,09	4,649
323,30	6,866
323,51	5,787
323,72	9,923
323,93	2,491
324,14	3,637
324,35	3,593
324,56	2,064
324,77	3,637
324,99	2,686
325,20	-0,287
325,41	5,331
325,62	5,847
325,83	2,916
326,04	2,346
326,25	5,663
326,46	1,026
326,67	4,891
326,88	4,812
327,09	3,321
327,30	3,102
327,51	5,679
327,72	5,358
327,93	7,002
328,14	2,358
328,35	3,871
328,56	6,745
328,77	4,732
328,98	5,972
329,19	5,360
329,40	8,455
329,61	4,529
329,82	0,120
330,04	6,211
330,25	4,327
330,46	4,790
330,67	4,622
330,88	5,496
331,09	3,486
331,30	3,757
331,51	5,417
331,72	4,852
331,93	4,424
332,14	4,131
332,35	5,154
332,56	5,926
332,77	7,222
332,98	1,042
333,19	4,616
333,40	5,015
333,61	3,385
333,82	7,025
334,03	6,823
334,24	6,274
334,45	2,270
334,66	7,445
334,87	6,248
335,08	3,780
335,29	2,323
335,50	3,123
335,71	4,002
335,92	6,499
336,13	9,287
336,34	1,762
336,55	5,956
336,76	7,738
336,97	4,783
337,18	3,629
337,39	3,779
337,60	6,830
337,81	6,385
338,02	3,715
338,23	6,028
338,44	5,821
338,65	4,863
338,86	6,048
339,07	3,824
339,28	5,937
339,49	4,939
339,70	1,669
339,91	3,130
340,11	7,539
340,32	1,022
340,53	2,322
340,74	2,183
340,95	3,624
341,16	6,783
341,37	3,142
341,58	3,229
341,79	1,858
342,00	4,578
342,21	3,715
342,42	4,399
342,63	6,421
342,84	2,424
343,05	7,447
343,26	8,289
343,47	3,068
343,68	2,556
343,89	2,951
344,10	7,875
344,31	8,582
344,52	4,531
344,73	3,427
344,94	6,038
345,14	5,477
345,35	8,957
345,56	2,283
345,77	4,732
345,98	3,283
346,19	5,658
346,40	6,263
346,61	3,222
346,82	0,694
347,03	3,875
347,24	4,449
347,45	3,379
347,66	7,241
347,87	3,970
348,08	7,916
348,28	3,127
348,49	4,372
348,70	8,918
348,91	6,228
349,12	1,958
349,33	20,101
349,54	1,991
349,75	8,064
349,96	7,910
350,17	5,479
350,38	2,913
350,59	2,192
350,80	5,296
351,00	5,981
351,21	7,927
351,42	6,155
351,63	-1,334
351,84	5,802
352,05	8,674
352,26	4,473
352,47	5,304
352,68	5,630
352,89	7,351
353,09	5,172
353,30	1,163
353,51	5,502
353,72	7,760
353,93	8,260
354,14	-0,288
354,35	3,295
354,56	5,242
354,77	5,347
354,98	0,677
355,18	8,747
355,39	7,726
355,60	4,724
355,81	4,918
356,02	6,608
356,23	6,334
356,44	3,648
356,65	8,602
356,85	9,464
357,06	7,941
357,27	5,641
357,48	2,808
357,69	5,708
357,90	6,149
358,11	0,541
358,32	3,212
358,52	10,909
358,73	4,244
358,94	2,742
359,15	5,315
359,36	6,291
359,57	5,663
359,78	6,532
359,98	3,082
360,19	2,459
360,40	3,251
360,61	5,509
360,82	6,354
361,03	9,301
361,24	7,591
361,44	5,555
361,65	3,259
361,86	5,547
362,07	5,031
362,28	3,592
362,49	2,575
362,70	5,203
362,90	7,001
363,11	4,558
363,32	3,410
363,53	7,087
363,74	8,236
363,95	9,791
364,15	6,295
364,36	9,137
364,57	7,091
364,78	8,400
364,99	2,861
365,20	6,064
365,40	7,105
365,61	3,952
365,82	6,755
366,03	5,610
366,24	5,861
366,45	4,603
366,65	1,578
366,86	5,290
367,07	3,391
367,28	3,897
367,49	7,383
367,69	8,583
367,90	4,297
368,11	5,118
368,32	0,083
368,53	8,037
368,73	8,199
368,94	3,560
369,15	5,508
369,36	10,110
369,57	7,492
369,78	3,642
369,98	6,861
370,19	6,465
370,40	4,035
370,61	6,608
370,82	2,786
371,02	8,535
371,23	6,477
371,44	5,734
371,65	5,734
371,85	7,242
372,06	4,239
372,27	4,792
372,48	4,525
372,69	4,212
372,89	2,563
373,10	2,117
373,31	5,717
373,52	8,051
373,73	9,590
373,93	7,381
374,14	5,658
374,35	7,682
374,56	6,196
374,76	7,825
374,97	6,030
375,18	6,400
375,39	7,291
375,60	9,908
375,80	6,115
376,01	5,750
376,22	5,684
376,43	6,662
376,63	7,198
376,84	6,835
377,05	7,784
377,26	5,489
377,46	4,052
377,67	6,981
377,88	8,277
378,09	8,210
378,29	5,127
378,50	9,539
378,71	10,059
378,92	6,538
379,12	5,378
379,33	7,669
379,54	7,991
379,75	10,529
379,95	5,830
380,16	9,726
380,37	12,646
380,58	5,266
380,78	12,602
380,99	6,622
381,20	7,399
381,41	9,783
381,61	10,428
381,82	10,901
382,03	10,581
382,24	8,832
382,44	8,858
382,65	10,526
382,86	9,999
383,06	8,109
383,27	10,557
383,48	6,919
383,69	12,002
383,89	11,324
384,10	9,888
384,31	9,857
384,51	16,820
384,72	11,880
384,93	8,572
385,14	11,486
385,34	11,122
385,55	6,797
385,76	10,773
385,96	16,861
386,17	13,718
386,38	13,738
386,59	15,945
386,79	13,108
387,00	14,779
387,21	16,344
387,41	15,343
387,62	11,374
387,83	16,633
388,03	14,139
388,24	8,483
388,45	11,609
388,66	14,784
388,86	16,298
389,07	12,781
389,28	21,576
389,48	17,042
389,69	16,525
389,90	12,313
390,10	18,990
390,31	16,090
390,52	12,568
390,72	13,170
390,93	17,888
391,14	16,926
391,34	19,817
391,55	21,651
391,76	23,665
391,96	18,328
392,17	16,230
392,38	17,860
392,58	20,060
392,79	20,434
393,00	16,511
393,20	15,498
393,41	18,114
393,62	18,627
393,82	20,998
394,03	19,415
394,24	22,186
394,44	26,570
394,65	20,535
394,86	20,196
395,06	20,874
395,27	19,181
395,48	21,068
395,68	23,126
395,89	26,202
396,10	24,689
396,30	19,527
396,51	20,231
396,72	29,710
396,92	25,596
397,13	28,139
397,34	22,008
397,54	27,436
397,75	23,388
397,95	24,338
398,16	28,132
398,37	26,627
398,57	24,449
398,78	27,577
398,99	29,399
399,19	28,013
399,40	28,374
399,60	26,832
399,81	29,903
400,02	28,156
400,22	31,877
400,43	27,645
400,64	27,153
400,84	28,065
401,05	33,644
401,25	31,772
401,46	30,610
401,67	27,963
401,87	32,648
402,08	27,250
402,29	32,380
402,49	35,574
402,70	34,226
402,90	29,040
403,11	33,138
403,32	36,429
403,52	28,460
403,73	34,630
403,93	32,507
404,14	36,030
404,35	37,098
404,55	33,669
404,76	35,116
404,96	37,043
405,17	38,751
405,38	38,087
405,58	35,289
405,79	38,428
405,99	37,020
406,20	37,485
406,40	33,530
406,61	41,345
406,82	39,313
407,02	39,036
407,23	36,866
407,43	39,075
407,64	36,928
407,85	42,437
408,05	36,062
408,26	48,369
408,46	42,975
408,67	35,301
408,87	42,184
409,08	39,545
409,29	45,606
409,49	41,892
409,70	42,189
409,90	41,647
410,11	40,053
410,31	44,751
410,52	41,775
410,72	40,410
410,93	49,197
411,14	41,935
411,34	39,501
411,55	46,366
411,75	47,456
411,96	44,136
412,16	46,331
412,37	43,503
412,57	47,198
412,78	44,762
412,99	44,702
413,19	47,000
413,40	47,291
413,60	39,821
413,81	45,209
414,01	46,011
414,22	46,724
414,42	48,599
414,63	45,213
414,83	50,271
415,04	50,522
415,24	46,643
415,45	49,223
415,65	47,641
415,86	54,105
416,07	46,341
416,27	52,020
416,48	51,305
416,68	55,144
416,89	45,407
417,09	47,115
417,30	56,130
417,50	50,558
417,71	54,405
417,91	51,748
418,12	49,654
418,32	55,151
418,53	48,579
418,73	48,839
418,94	48,539
419,14	51,507
419,35	47,052
419,55	50,740
419,76	51,673
419,96	50,280
420,17	49,645
420,37	52,099
420,58	52,844
420,78	55,864
420,99	50,242
421,19	56,129
421,40	53,326
421,60	54,738
421,81	47,019
422,01	54,254
422,22	51,208
422,42	58,095
422,63	54,866
422,83	53,442
423,04	56,852
423,24	58,587
423,45	52,018
423,65	54,630
423,86	56,805
424,06	56,349
424,27	50,996
424,47	50,548
424,67	52,757
424,88	54,719
425,08	53,078
425,29	60,784
425,49	57,287
425,70	52,208
425,90	52,225
426,11	52,288
426,31	58,692
426,52	54,873
426,72	53,833
426,93	53,226
427,13	56,787
427,33	54,459
427,54	57,318
427,74	60,603
427,95	60,357
428,15	52,674
428,36	55,184
428,56	53,503
428,77	59,732
428,97	54,941
429,18	58,264
429,38	52,031
429,58	60,532
429,79	59,083
429,99	53,360
430,20	50,266
430,40	62,486
430,61	54,859
430,81	54,233
431,01	59,289
431,22	60,595
431,42	54,258
431,63	52,545
431,83	57,784
432,04	55,290
432,24	60,138
432,44	54,249
432,65	50,805
432,85	55,338
433,06	56,799
433,26	54,766
433,47	52,825
433,67	53,886
433,87	52,407
434,08	50,236
434,28	55,111
434,49	57,964
434,69	60,531
434,89	53,815
435,10	52,786
435,30	59,011
435,51	52,705
435,71	53,995
435,91	54,008
436,12	55,653
436,32	54,691
436,53	57,370
436,73	55,916
436,93	57,663
437,14	55,535
437,34	58,697
437,55	51,768
437,75	57,790
437,95	63,021
438,16	54,263
438,36	56,584
438,57	59,356
438,77	56,554
438,97	62,735
439,18	60,768
439,38	59,111
439,58	57,143
439,79	59,325
439,99	58,471
440,20	61,945
440,40	61,612
440,60	61,034
440,81	59,416
441,01	58,061
441,21	57,642
441,42	59,289
441,62	62,055
441,83	58,584
442,03	62,494
442,23	59,867
442,44	58,323
442,64	61,517
442,84	57,551
443,05	57,639
443,25	57,275
443,45	57,560
443,66	58,006
443,86	56,781
444,06	56,553
444,27	56,692
444,47	59,686
444,67	58,288
444,88	60,925
445,08	58,696
445,28	59,948
445,49	58,718
445,69	56,779
445,90	62,077
446,10	63,441
446,30	58,740
446,51	61,392
446,71	66,049
446,91	64,278
447,12	65,023
447,32	57,884
447,52	62,662
447,72	58,514
447,93	58,524
448,13	56,911
448,33	66,704
448,54	61,831
448,74	60,011
448,94	61,035
449,15	61,717
449,35	63,012
449,55	61,117
449,76	61,229
449,96	58,235
450,16	63,115
450,37	62,286
450,57	61,069
450,77	57,517
450,98	64,747
451,18	62,395
451,38	61,170
451,58	61,435
451,79	62,266
451,99	61,140
452,19	63,986
452,40	62,534
452,60	58,191
452,80	57,374
453,00	64,630
453,21	61,186
453,41	65,195
453,61	61,559
453,82	60,860
454,02	56,392
454,22	67,884
454,42	64,447
454,63	58,035
454,83	55,194
455,03	63,454
455,24	60,533
455,44	59,106
455,64	59,568
455,84	63,202
456,05	56,851
456,25	59,295
456,45	60,925
456,65	60,440
456,86	57,755
457,06	63,849
457,26	66,113
457,47	66,582
457,67	61,087
457,87	55,519
458,07	60,984
458,28	63,626
458,48	62,818
458,68	56,803
458,88	67,808
459,09	59,558
459,29	65,486
459,49	59,271
459,69	65,319
459,90	64,343
460,10	61,328
460,30	58,972
460,50	59,355
460,71	59,159
460,91	56,877
461,11	62,141
461,31	59,013
461,52	59,874
461,72	57,919
461,92	58,401
462,12	68,064
462,32	60,038
462,53	61,577
462,73	60,359
462,93	61,428
463,13	63,821
463,34	61,168
463,54	62,434
463,74	56,759
463,94	61,661
464,14	58,350
464,35	60,292
464,55	63,136
464,75	64,656
464,95	61,213
465,16	61,623
465,36	62,636
465,56	57,905
465,76	59,108
465,96	60,420
466,17	56,342
466,37	60,861
466,57	61,902
466,77	62,690
466,97	59,410
467,18	60,128
467,38	59,735
467,58	62,378
467,78	63,709
467,98	64,510
468,19	61,551
468,39	63,526
468,59	59,769
468,79	62,899
468,99	58,461
469,19	53,711
469,40	65,276
469,60	59,568
469,80	59,219
470,00	59,735
470,20	61,252
470,41	58,606
470,61	65,235
470,81	58,208
471,01	57,944
471,21	64,894
471,41	58,760
471,62	61,596
471,82	60,324
472,02	64,975
472,22	61,154
472,42	59,798
472,62	63,031
472,83	58,321
473,03	62,272
473,23	58,492
473,43	66,342
473,63	62,273
473,83	60,388
474,03	61,109
474,24	64,977
474,44	58,461
474,64	62,880
474,84	61,231
475,04	64,721
475,24	61,694
475,45	59,147
475,65	60,853
475,85	65,316
476,05	55,737
476,25	58,015
476,45	57,419
476,65	67,950
476,85	59,690
477,06	58,347
477,26	59,342
477,46	59,560
477,66	61,609
477,86	60,998
478,06	59,085
478,26	64,944
478,46	61,293
478,67	57,893
478,87	62,614
479,07	59,360
479,27	62,513
479,47	58,245
479,67	54,749
479,87	57,057
480,07	58,344
480,28	59,240
480,48	59,609
480,68	63,107
480,88	64,624
481,08	59,914
481,28	60,452
481,48	60,857
481,68	60,117
481,88	62,034
482,08	57,510
482,29	65,662
482,49	57,413
482,69	58,410
482,89	58,739
483,09	61,640
483,29	58,637
483,49	58,705
483,69	59,268
483,89	57,615
484,09	58,545
484,29	57,979
484,50	56,524
484,70	57,476
484,90	58,078
485,10	55,742
485,30	59,826
485,50	62,891
485,70	59,704
485,90	57,101
486,10	55,312
486,30	56,361
486,50	58,025
486,70	57,181
486,90	57,004
487,10	58,644
487,30	58,598
487,51	61,246
487,71	53,697
487,91	55,546
488,11	59,042
488,31	54,358
488,51	57,695
488,71	57,638
488,91	58,936
489,11	54,307
489,31	55,061
489,51	58,186
489,71	57,977
489,91	56,245
490,11	56,464
490,31	57,596
490,51	58,463
490,71	57,609
490,91	57,312
491,11	61,487
491,31	61,860
491,51	58,271
491,72	56,282
491,92	57,869
492,12	61,054
492,32	58,390
492,52	60,612
492,72	57,806
492,92	59,088
493,12	61,712
493,32	53,945
493,52	56,154
493,72	60,242
493,92	59,414
494,12	57,804
494,32	58,290
494,52	58,845
494,72	58,743
494,92	59,743
495,12	62,121
495,32	63,044
495,52	56,975
495,72	58,994
495,92	63,471
496,12	60,300
496,32	57,511
496,52	59,125
496,72	59,180
496,92	60,618
497,12	56,992
497,32	60,386
497,52	58,736
497,72	62,263
497,92	61,439
498,12	61,923
498,32	59,947
498,52	61,043
498,72	57,983
498,92	58,653
499,12	62,443
499,32	58,656
499,52	59,238
499,72	61,567
499,92	60,786
500,12	61,718
500,32	62,114
500,52	61,692
500,72	66,515
500,91	61,508
501,11	60,094
501,31	57,074
501,51	63,255
501,71	67,338
501,91	62,631
502,11	59,031
502,31	61,096
502,51	61,986
502,71	59,037
502,91	58,746
503,11	59,975
503,31	62,798
503,51	59,048
503,71	59,492
503,91	62,042
504,11	65,083
504,31	60,835
504,51	60,607
504,71	64,887
504,91	60,407
505,10	64,119
505,30	62,366
505,50	62,991
505,70	62,967
505,90	61,854
506,10	58,338
506,30	60,026
506,50	59,119
506,70	65,337
506,90	60,447
507,10	59,726
507,30	61,591
507,50	63,749
507,70	61,497
507,89	64,496
508,09	60,207
508,29	59,810
508,49	62,189
508,69	61,131
508,89	61,467
509,09	60,474
509,29	60,582
509,49	61,336
509,69	66,296
509,89	60,885
510,09	60,669
510,28	64,272
510,48	61,792
510,68	63,890
510,88	61,069
511,08	63,806
511,28	59,733
511,48	62,681
511,68	58,792
511,88	57,376
512,07	60,699
512,27	60,263
512,47	59,526
512,67	60,434
512,87	56,985
513,07	60,325
513,27	59,795
513,47	60,894
513,67	58,324
513,86	62,955
514,06	62,601
514,26	58,306
514,46	65,094
514,66	58,788
514,86	59,920
515,06	64,142
515,26	62,856
515,45	62,698
515,65	61,065
515,85	61,965
516,05	60,669
516,25	61,811
516,45	60,914
516,65	60,944
516,84	63,636
517,04	61,865
517,24	59,380
517,44	60,390
517,64	63,559
517,84	62,722
518,04	61,723
518,23	64,685
518,43	61,490
518,63	55,169
518,83	60,883
519,03	60,228
519,23	62,965
519,42	65,127
519,62	59,913
519,82	60,028
520,02	60,205
520,22	62,654
520,42	58,516
520,61	60,798
520,81	64,961
521,01	67,485
521,21	60,698
521,41	62,209
521,61	63,696
521,80	60,610
522,00	60,238
522,20	63,941
522,40	60,571
522,60	62,644
522,79	59,829
522,99	61,920
523,19	62,531
523,39	59,933
523,59	60,864
523,78	64,701
523,98	59,062
524,18	59,969
524,38	57,312
524,58	60,847
524,77	65,166
524,97	59,370
525,17	61,449
525,37	59,730
525,57	67,127
525,76	60,095
525,96	63,164
526,16	61,029
526,36	58,684
526,56	60,071
526,75	58,483
526,95	64,450
527,15	60,228
527,35	64,401
527,55	60,791
527,74	64,396
527,94	61,139
528,14	61,138
528,34	61,428
528,53	62,851
528,73	64,718
528,93	59,945
529,13	60,042
529,32	62,322
529,52	60,747
529,72	60,302
529,92	59,632
530,12	59,070
530,31	57,986
530,51	60,737
530,71	60,541
530,91	62,413
531,10	57,495
531,30	60,880
531,50	58,759
531,70	64,315
531,89	61,181
532,09	60,425
532,29	57,740
532,49	59,804
532,68	60,692
532,88	57,945
533,08	57,190
533,28	59,823
533,47	62,407
533,67	60,035
533,87	59,180
534,06	63,677
534,26	60,114
534,46	58,028
534,66	59,288
534,85	62,761
535,05	55,999
535,25	58,726
535,45	58,493
535,64	57,130
535,84	59,472
536,04	56,926
536,23	59,606
536,43	61,641
536,63	58,076
536,83	59,643
537,02	59,537
537,22	58,795
537,42	57,560
537,61	57,009
537,81	56,570
538,01	58,235
538,20	57,250
538,40	57,267
538,60	56,990
538,80	56,207
538,99	54,412
539,19	54,395
539,39	52,186
539,58	52,343
539,78	49,782
539,98	53,258
540,17	50,321
540,37	51,917
540,57	50,106
540,76	49,584
540,96	46,699
541,16	50,153
541,36	46,290
541,55	46,251
541,75	46,067
541,95	45,274
542,14	46,263
542,34	42,655
542,54	44,455
542,73	44,904
542,93	44,597
543,13	43,049
543,32	42,596
543,52	43,343
543,72	43,124
543,91	43,756
544,11	43,588
544,31	43,779
544,50	45,321
544,70	44,815
544,89	45,526
545,09	46,099
545,29	45,389
545,48	47,370
545,68	44,912
545,88	46,660
546,07	46,065
546,27	47,211
546,47	50,003
546,66	50,045
546,86	52,438
547,06	48,160
547,25	49,395
547,45	53,211
547,64	53,125
547,84	55,962
548,04	52,542
548,23	55,290
548,43	54,709
548,63	55,617
548,82	55,664
549,02	54,528
549,21	52,984
549,41	55,066
549,61	55,244
549,80	56,295
550,00	55,344
550,20	52,334
550,39	57,087
550,59	53,330
550,78	57,383
550,98	53,363
551,18	55,580
551,37	55,492
551,57	58,207
551,76	56,142
551,96	55,711
552,16	56,191
552,35	54,816
552,55	57,297
552,74	58,121
552,94	58,914
553,14	56,682
553,33	57,790
553,53	58,759
553,72	58,243
553,92	61,191
554,12	56,117
554,31	59,053
554,51	58,931
554,70	54,914
554,90	58,424
555,09	63,450
555,29	61,298
555,49	57,883
555,68	60,313
555,88	59,597
556,07	56,976
556,27	60,878
556,46	58,001
556,66	56,966
556,86	64,152
557,05	61,303
557,25	55,928
557,44	60,011
557,64	57,412
557,83	59,354
558,03	58,712
558,22	57,828
558,42	57,722
558,62	61,942
558,81	59,921
559,01	59,045
559,20	62,282
559,40	61,046
559,59	58,813
559,79	58,567
559,98	60,858
560,18	61,323
560,37	58,297
560,57	60,867
560,76	57,584
560,96	56,976
561,16	59,641
561,35	59,582
561,55	62,273
561,74	60,194
561,94	61,172
562,13	58,773
562,33	61,731
562,52	59,127
562,72	58,527
562,91	58,559
563,11	59,681
563,30	62,230
563,50	58,108
563,69	57,870
563,89	58,122
564,08	59,812
564,28	59,938
564,47	62,017
564,67	61,123
564,86	60,587
565,06	57,654
565,25	60,432
565,45	60,599
565,64	62,011
565,84	58,627
566,03	57,393
566,23	58,773
566,42	60,240
566,62	59,506
566,81	58,130
567,01	60,591
567,20	62,057
567,40	59,091
567,59	58,386
567,79	64,848
567,98	61,049
568,18	61,661
568,37	60,162
568,57	60,394
568,76	60,316
568,96	59,450
569,15	60,065
569,35	60,706
569,54	62,912
569,73	62,842
569,93	60,570
570,12	60,611
570,32	62,432
570,51	60,575
570,71	61,744
570,90	59,977
571,10	60,429
571,29	60,350
571,49	59,925
571,68	59,834
571,87	61,264
572,07	57,616
572,26	58,375
572,46	61,151
572,65	62,490
572,85	59,088
573,04	59,474
573,24	61,994
573,43	63,291
573,62	63,993
573,82	59,694
574,01	60,446
574,21	58,859
574,40	57,477
574,60	59,442
574,79	60,766
574,98	59,504
575,18	59,568
575,37	57,619
575,57	59,765
575,76	60,537
575,96	58,902
576,15	59,037
576,34	59,221
576,54	61,451
576,73	60,718
576,93	58,959
577,12	59,580
577,31	59,167
577,51	58,274
577,70	58,952
577,90	59,846
578,09	58,526
578,28	57,187
578,48	58,457
578,67	61,125
578,87	58,769
579,06	57,631
579,25	59,111
579,45	59,643
579,64	57,752
579,84	58,809
580,03	56,012
580,22	62,860
580,42	57,505
580,61	59,150
580,81	56,751
581,00	59,246
581,19	58,954
581,39	57,232
581,58	57,522
581,77	58,297
581,97	59,291
582,16	56,666
582,35	57,785
582,55	58,649
582,74	60,178
582,94	58,581
583,13	57,062
583,32	57,989
583,52	58,262
583,71	58,398
583,90	58,006
584,10	59,198
584,29	59,436
584,48	56,334
584,68	57,997
584,87	60,194
585,06	58,454
585,26	56,941
585,45	57,783
585,65	57,642
585,84	59,498
586,03	56,507
586,23	56,462
586,42	57,645
586,61	59,475
586,81	56,924
587,00	57,839
587,19	56,885
587,39	59,088
587,58	57,527
587,77	57,661
587,97	56,451
588,16	57,898
588,35	56,952
588,54	58,113
588,74	57,730
588,93	57,795
589,12	57,278
589,32	58,531
589,51	58,777
589,70	56,674
589,90	56,981
590,09	57,469
590,28	60,749
590,48	56,442
590,67	56,951
590,86	57,238
591,06	56,054
591,25	59,818
591,44	59,438
591,63	57,312
591,83	58,277
592,02	57,441
592,21	56,590
592,41	56,101
592,60	58,206
592,79	58,759
592,98	57,937
593,18	57,665
593,37	57,250
593,56	59,064
593,76	59,292
593,95	57,426
594,14	56,208
594,33	59,648
594,53	59,012
594,72	59,681
594,91	61,910
595,10	58,750
595,30	59,912
595,49	58,772
595,68	59,602
595,88	60,221
596,07	58,919
596,26	59,621
596,45	59,207
596,65	58,956
596,84	58,294
597,03	59,150
597,22	59,768
597,42	61,880
597,61	58,052
597,80	58,389
597,99	59,668
598,19	60,023
598,38	58,646
598,57	59,564
598,76	60,482
598,95	59,854
599,15	58,338
599,34	60,524
599,53	58,888
599,72	59,193
599,92	60,606
600,11	59,348
600,30	58,182
600,49	59,977
600,69	59,064
600,88	59,644
601,07	58,541
601,26	58,654
601,45	58,058
601,65	59,396
601,84	59,043
602,03	61,427
602,22	59,852
602,42	58,906
602,61	57,859
602,80	60,814
602,99	59,639
603,18	57,674
603,38	60,097
603,57	59,782
603,76	58,240
603,95	58,021
604,14	59,311
604,34	58,671
604,53	58,122
604,72	59,256
604,91	59,261
605,10	58,446
605,29	60,255
605,49	58,155
605,68	58,679
605,87	59,975
606,06	59,351
606,25	57,938
606,45	59,377
606,64	58,381
606,83	60,408
607,02	56,697
607,21	58,636
607,40	58,199
607,60	56,070
607,79	56,430
607,98	54,846
608,17	54,827
608,36	55,344
608,55	54,089
608,75	56,296
608,94	54,070
609,13	51,691
609,32	48,599
609,51	49,916
609,70	49,529
609,89	49,364
610,09	49,019
610,28	49,623
610,47	48,473
610,66	48,256
610,85	46,732
611,04	49,710
611,23	49,585
611,43	49,169
611,62	48,574
611,81	48,158
612,00	49,620
612,19	46,193
612,38	47,966
612,57	51,824
612,77	50,818
612,96	51,459
613,15	51,053
613,34	51,676
613,53	52,275
613,72	53,965
613,91	54,951
614,10	53,334
614,29	55,397
614,49	53,228
614,68	53,900
614,87	55,546
615,06	58,836
615,25	52,943
615,44	56,215
615,63	55,563
615,82	54,001
616,01	54,885
616,21	55,318
616,40	56,611
616,59	59,955
616,78	55,646
616,97	56,198
617,16	57,939
617,35	57,615
617,54	55,809
617,73	56,088
617,92	56,374
618,11	58,783
618,31	55,045
618,50	56,919
618,69	55,531
618,88	56,089
619,07	55,429
619,26	54,538
619,45	55,975
619,64	55,238
619,83	54,102
620,02	54,879
620,21	58,370
620,40	56,448
620,59	55,804
620,78	56,795
620,97	56,670
621,17	58,226
621,36	55,322
621,55	55,369
621,74	56,375
621,93	55,380
622,12	55,808
622,31	56,434
622,50	57,756
622,69	58,230
622,88	57,886
623,07	57,808
623,26	58,829
623,45	58,125
623,64	56,394
623,83	56,250
624,02	57,943
624,21	56,082
624,40	57,193
624,59	55,314
624,78	56,032
624,97	59,808
625,16	56,261
625,35	55,179
625,54	54,893
625,73	56,566
625,92	56,521
626,12	59,515
626,31	59,167
626,50	57,640
626,69	57,451
626,88	54,946
627,07	59,668
627,26	57,509
627,45	56,483
627,64	56,605
627,83	56,943
628,02	56,623
628,21	54,485
628,40	56,530
628,59	57,720
628,78	55,797
628,97	56,467
629,16	55,284
629,35	54,866
629,54	58,344
629,73	55,472
629,92	55,944
630,10	56,083
630,29	55,263
630,48	57,077
630,67	55,370
630,86	57,441
631,05	56,760
631,24	57,404
631,43	54,405
631,62	57,856
631,81	55,778
632,00	55,520
632,19	55,865
632,38	54,989
632,57	53,813
632,76	56,010
632,95	56,568
633,14	57,879
633,33	57,473
633,52	57,415
633,71	58,789
633,90	56,442
634,09	56,520
634,28	57,393
634,47	56,449
634,66	56,546
634,85	57,480
635,04	58,842
635,22	57,186
635,41	56,785
635,60	58,612
635,79	57,288
635,98	56,127
636,17	58,100
636,36	57,610
636,55	57,407
636,74	57,213
636,93	56,651
637,12	58,237
637,31	55,555
637,50	56,257
637,69	60,221
637,87	58,576
638,06	58,627
638,25	57,384
638,44	58,201
638,63	55,781
638,82	55,231
639,01	56,465
639,20	57,259
639,39	59,703
639,58	57,237
639,77	55,917
639,95	57,763
640,14	56,915
640,33	57,039
640,52	56,176
640,71	61,056
640,90	57,079
641,09	58,884
641,28	57,827
641,47	57,318
641,66	56,156
641,84	57,220
642,03	56,358
642,22	58,189
642,41	58,560
642,60	55,817
642,79	58,017
642,98	57,619
643,17	55,826
643,35	57,097
643,54	57,929
643,73	57,596
643,92	58,027
644,11	57,184
644,30	55,744
644,49	57,938
644,67	57,130
644,86	57,066
645,05	58,610
645,24	56,681
645,43	57,010
645,62	57,535
645,81	57,130
645,99	58,248
646,18	58,488
646,37	58,138
646,56	56,506
646,75	58,890
646,94	58,364
647,13	55,135
647,31	56,714
647,50	56,888
647,69	56,984
647,88	58,066
648,07	56,911
648,26	60,854
648,44	57,751
648,63	56,903
648,82	57,151
649,01	60,267
649,20	56,718
649,38	57,064
649,57	57,403
649,76	55,719
649,95	58,532
650,14	55,639
650,33	56,984
650,51	57,452
650,70	59,535
650,89	57,305
651,08	56,725
651,27	57,557
651,45	55,344
651,64	56,244
651,83	56,785
652,02	57,387
652,21	58,059
652,39	57,829
652,58	59,397
652,77	57,951
652,96	58,060
653,15	57,261
653,33	57,860
653,52	58,192
653,71	59,867
653,90	59,306
654,09	58,693
654,27	59,518
654,46	60,794
654,65	59,080
654,84	58,708
655,02	59,235
655,21	59,764
655,40	61,314
655,59	58,977
655,77	60,664
655,96	59,407
656,15	58,328
656,34	60,189
656,53	58,964
656,71	58,271
656,90	59,495
657,09	60,550
657,28	59,477
657,46	57,071
657,65	58,019
657,84	56,905
658,03	58,467
658,21	57,338
658,40	58,210
658,59	59,040
658,78	59,287
658,96	56,343
659,15	58,918
659,34	56,824
659,52	58,396
659,71	58,361
659,90	57,279
660,09	56,901
660,27	57,901
660,46	59,287
660,65	57,254
660,84	58,350
661,02	58,516
661,21	57,896
661,40	57,935
661,58	57,316
661,77	57,913
661,96	56,325
662,15	57,473
662,33	56,312
662,52	55,762
662,71	56,042
662,89	54,406
663,08	57,318
663,27	55,832
663,45	56,547
663,64	55,487
663,83	55,806
664,02	57,973
664,20	57,230
664,39	55,420
664,58	56,642
664,76	57,184
664,95	56,731
665,14	56,994
665,32	57,434
665,51	57,496
665,70	57,491
665,88	56,612
666,07	57,377
666,26	57,486
666,44	58,512
666,63	56,235
666,82	55,886
667,00	58,500
667,19	54,527
667,38	57,838
667,56	57,422
667,75	58,762
667,94	57,022
668,12	55,455
668,31	56,117
668,50	56,768
668,68	58,467
668,87	57,223
669,06	55,509
669,24	59,333
669,43	57,319
669,62	55,552
669,80	55,115
669,99	58,361
670,18	58,842
670,36	55,701
670,55	57,265
670,74	58,483
670,92	54,194
671,11	57,762
671,29	55,339
671,48	56,250
671,67	57,529
671,85	57,778
672,04	56,503
672,23	55,999
672,41	57,110
672,60	57,719
672,78	56,533
672,97	57,420
673,16	57,094
673,34	57,185
673,53	56,577
673,71	58,365
673,90	58,764
674,09	58,298
674,27	55,302
674,46	56,487
674,64	58,395
674,83	57,861
675,02	54,696
675,20	56,466
675,39	56,994
675,57	56,869
675,76	55,322
675,95	58,430
676,13	58,173
676,32	57,610
676,50	57,904
676,69	55,728
676,88	57,266
677,06	56,763
677,25	55,942
677,43	58,542
677,62	59,922
677,80	58,209
677,99	56,095
678,18	58,763
678,36	59,602
678,55	55,593
678,73	55,750
678,92	56,896
679,10	56,952
679,29	56,059
679,48	56,572
679,66	57,132
679,85	57,172
680,03	56,180
680,22	59,073
680,40	55,169
680,59	57,473
680,77	55,945
680,96	56,652
681,15	55,802
681,33	58,713
681,52	55,472
681,70	56,810
681,89	59,335
682,07	57,044
682,26	57,053
682,44	58,471
682,63	57,505
682,81	58,072
683,00	57,739
683,18	54,631
683,37	58,117
683,55	57,239
683,74	56,984
683,92	61,884
684,11	59,328
684,29	58,198
684,48	54,976
684,67	57,006
684,85	58,365
685,04	57,076
685,22	56,451
685,41	54,539
685,59	57,548
685,78	55,388
685,96	55,661
686,15	55,090
686,33	55,650
686,52	57,532
686,70	56,834
686,89	57,995
687,07	58,085
687,26	57,831
687,44	56,863
687,62	55,782
687,81	57,742
687,99	57,100
688,18	57,032
688,36	57,019
688,55	57,418
688,73	56,499
688,92	54,679
689,10	55,366
689,29	58,132
689,47	59,457
689,66	56,226
689,84	55,326
690,03	58,388
690,21	57,210
690,40	57,604
690,58	54,648
690,76	56,049
690,95	57,897
691,13	54,756
691,32	57,380
691,50	58,576
691,69	58,217
691,87	54,920
692,06	56,365
692,24	56,138
692,43	56,756
692,61	54,157
692,79	57,049
692,98	53,540
693,16	58,832
693,35	56,013
693,53	56,555
693,72	57,902
693,90	58,033
694,08	56,532
694,27	56,112
694,45	58,327
694,64	58,785
694,82	56,805
695,01	56,483
695,19	56,848
695,37	56,885
695,56	56,394
695,74	56,599
695,93	58,220
696,11	56,280
696,29	57,981
696,48	56,135
696,66	57,629
696,85	57,429
697,03	56,036
697,21	58,244
697,40	56,676
697,58	57,799
697,77	56,580
697,95	56,593
698,13	56,978
698,32	57,744
698,50	55,236
698,69	54,963
698,87	58,146
699,05	56,374
699,24	54,253
699,42	56,768
699,60	56,018
699,79	57,003
699,97	54,167
700,16	54,638
700,34	57,095
700,52	55,462
700,71	57,471
700,89	55,467
701,07	56,135
701,26	56,173
701,44	57,186
701,63	55,840
701,81	56,863
701,99	57,230
702,18	53,658
702,36	56,673
702,54	55,094
702,73	57,061
702,91	56,239
703,09	55,470
703,28	54,879
703,46	57,030
703,64	55,420
703,83	56,274
704,01	57,310
704,19	57,324
704,38	56,670
704,56	56,457
704,74	57,189
704,93	56,469
705,11	54,676
705,29	53,784
705,48	58,295
705,66	58,034
705,84	57,015
706,03	53,602
706,21	57,246
706,39	54,929
706,58	53,256
706,76	54,106
706,94	56,764
707,12	56,807
707,31	54,924
707,49	54,732
707,67	56,328
707,86	57,763
708,04	57,610
708,22	54,408
708,41	54,836
708,59	55,045
708,77	54,348
708,95	57,351
709,14	58,125
709,32	56,096
709,50	54,705
709,69	55,604
709,87	54,748
710,05	56,800
710,23	56,796
710,42	54,180
710,60	57,872
710,78	57,292
710,97	55,708
711,15	55,671
711,33	58,602
711,51	53,741
711,70	55,830
711,88	54,115
712,06	58,164
712,24	56,889
712,43	56,608
712,61	57,224
712,79	55,150
712,97	55,264
713,16	54,020
713,34	56,228
713,52	55,818
713,70	55,753
713,89	56,447
714,07	54,289
714,25	55,764
714,43	56,452
714,62	54,704
714,80	55,418
714,98	53,178
715,16	56,387
715,35	53,897
715,53	53,347
715,71	58,846
715,89	58,019
716,07	57,107
716,26	59,648
716,44	57,334
716,62	58,057
716,80	55,957
716,99	54,747
717,17	57,151
717,35	56,417
717,53	54,680
717,71	54,687
717,90	56,330
718,08	57,257
718,26	54,272
718,44	57,071
718,62	58,848
718,81	56,123
718,99	53,917
719,17	56,200
719,35	55,018
719,53	54,626
719,72	54,464
719,90	55,065
720,08	55,636
720,26	57,422
720,44	54,288
720,62	55,807
720,81	56,069
720,99	58,800
721,17	55,904
721,35	57,439
721,53	55,815
721,72	57,733
721,90	56,981
722,08	56,647
722,26	58,357
722,44	55,171
722,62	56,478
722,81	55,709
722,99	55,928
723,17	55,708
723,35	56,093
723,53	58,280
723,71	58,902
723,89	58,868
724,08	53,659
724,26	54,763
724,44	56,458
724,62	56,137
724,80	54,780
724,98	56,044
725,16	58,082
725,35	56,599
725,53	56,016
725,71	53,913
725,89	56,126
726,07	58,941
726,25	58,772
726,43	55,171
726,61	55,110
726,80	58,230
726,98	56,211
727,16	56,649
727,34	57,869
727,52	56,754
727,70	54,462
727,88	54,819
728,06	55,225
728,25	54,200
728,43	56,186
728,61	55,602
728,79	55,114
728,97	56,008
729,15	54,262
729,33	56,159
729,51	58,351
729,69	59,761
729,87	57,140
730,06	55,266
730,24	57,997
730,42	56,835
730,60	55,080
730,78	56,600
730,96	56,740
731,14	56,820
731,32	54,847
731,50	53,762
731,68	55,592
731,86	56,926
732,04	57,528
732,22	54,395
732,41	59,173
732,59	55,247
732,77	56,334
732,95	56,723
733,13	57,706
733,31	55,426
733,49	54,812
733,67	57,780
733,85	56,580
734,03	56,450
734,21	54,993
734,39	55,282
734,57	57,972
734,75	56,322
734,93	56,151
735,11	55,682
735,29	55,264
735,47	61,121
735,65	55,545
735,84	53,756
736,02	56,458
736,20	60,069
736,38	56,546
736,56	57,051
736,74	56,960
736,92	56,876
737,10	54,771
737,28	58,095
737,46	58,423
737,64	56,383
737,82	56,283
738,00	56,555
738,18	57,706
738,36	57,179
738,54	55,957
738,72	54,586
738,90	54,558
739,08	57,028
739,26	54,421
739,44	57,836
739,62	57,992
739,80	59,437
739,98	55,656
740,16	56,031
740,34	55,822
740,52	59,896
740,70	56,349
740,88	55,763
741,06	55,602
741,24	55,214
741,42	58,714
741,60	55,157
741,78	60,498
741,96	54,614
742,14	54,498
742,32	56,921
742,50	57,908
742,68	55,706
742,86	54,287
743,04	53,925
743,21	56,041
743,39	56,902
743,57	55,860
743,75	56,275
743,93	55,372
744,11	54,279
744,29	53,395
744,47	57,084
744,65	56,039
744,83	56,064
745,01	54,314
745,19	57,297
745,37	61,000
745,55	56,683
745,73	58,245
745,91	55,350
746,09	55,736
746,27	54,244
746,45	53,653
746,62	53,396
746,80	57,078
746,98	55,558
747,16	54,613
747,34	56,051
747,52	54,427
747,70	56,139
747,88	54,728
748,06	56,305
748,24	55,837
748,42	56,281
748,60	55,770
748,78	52,286
748,95	57,229
749,13	58,879
749,31	55,612
749,49	56,699
749,67	56,798
749,85	57,368
750,03	54,616
750,21	56,122
750,39	57,150
750,57	57,274
750,74	56,849
750,92	54,053
751,10	57,305
751,28	55,322
751,46	56,828
751,64	57,777
751,82	56,293
752,00	56,282
752,17	54,938
752,35	55,807
752,53	56,077
752,71	56,698
752,89	56,487
753,07	54,786
753,25	58,013
753,43	56,299
753,60	56,429
753,78	56,032
753,96	57,351
754,14	56,279
754,32	56,411
754,50	56,034
754,68	57,903
754,85	56,712
755,03	55,621
755,21	57,278
755,39	61,741
755,57	58,859
755,75	56,999
755,92	54,330
756,10	55,705
756,28	57,326
756,46	55,320
756,64	55,975
756,82	56,571
756,99	54,974
757,17	55,810
757,35	56,516
757,53	57,710
757,71	56,329
757,89	54,629
758,06	57,248
758,24	57,220
758,42	57,240
758,60	54,554
758,78	57,090
758,95	57,090
759,13	56,425
759,31	56,200
759,49	55,797
759,67	55,899
759,84	56,174
760,02	56,431
760,20	56,479
760,38	56,752
760,56	55,823
760,73	58,577
760,91	55,831
761,09	58,323
761,27	55,638
761,45	56,488
761,62	54,092
761,80	56,227
761,98	55,587
762,16	55,117
762,33	54,703
762,51	58,139
762,69	57,131
762,87	54,951
763,05	55,853
763,22	56,168
763,40	54,870
763,58	52,937
763,76	55,321
763,93	54,994
764,11	57,368
764,29	55,665
764,47	54,608
764,64	57,059
764,82	59,619
765,00	57,177
765,18	53,590
765,35	53,626
765,53	57,349
765,71	54,556
765,89	53,584
766,06	55,541
766,24	56,186
766,42	55,434
766,60	54,894
766,77	53,737
766,95	55,592
767,13	55,069
767,30	55,325
767,48	56,751
767,66	56,676
767,84	55,678
768,01	56,079
768,19	58,007
768,37	56,915
768,54	54,566
768,72	57,220
768,90	56,859
769,08	57,838
769,25	59,164
769,43	54,218
769,61	52,961
769,78	55,346
769,96	56,257
770,14	57,729
770,31	58,526
770,49	58,785
770,67	55,589
770,85	53,898
771,02	56,164
771,20	55,751
771,38	57,327
771,55	55,818
771,73	55,987
771,91	54,827
772,08	56,119
772,26	54,266
772,44	56,656
772,61	54,941
772,79	55,701
772,97	55,392
773,14	55,208
773,32	56,519
773,50	55,823
773,67	56,622
773,85	57,471
774,03	57,436
774,20	56,356
774,38	56,321
774,56	57,484
774,73	57,554
774,91	55,743
775,09	55,706
775,26	55,058
775,44	58,005
775,61	57,807
775,79	54,287
775,97	57,375
776,14	56,338
776,32	55,666
776,50	53,539
776,67	56,892
776,85	55,132
777,03	53,237
777,20	56,509
777,38	58,130
777,55	58,823
777,73	52,958
777,91	55,335
778,08	57,442
778,26	55,342
778,43	57,331
778,61	54,373
778,79	54,380
778,96	56,715
779,14	54,557
779,32	57,122
779,49	56,748
779,67	57,740
779,84	54,092
780,02	57,039
780,20	54,255
780,37	59,038
780,55	50,907
780,72	56,986
780,90	53,557
781,07	55,152
781,25	56,472
781,43	58,758
781,60	56,937
781,78	57,312
781,95	57,950
782,13	57,434
782,30	57,916
782,48	56,212
782,66	53,879
782,83	52,231
783,01	62,024
783,18	58,242
783,36	57,515
783,53	56,658
783,71	55,247
783,89	54,148
784,06	59,432
784,24	55,816
784,41	59,012
784,59	56,755
784,76	57,281
784,94	53,883
785,11	54,860
785,29	58,918
785,46	59,734
785,64	56,226
785,82	58,013
785,99	57,371
786,17	55,322
786,34	57,507
786,52	56,872
786,69	59,923
786,87	56,742
787,04	54,787
787,22	52,993
787,39	59,779
787,57	56,898
787,74	57,816
787,92	62,639
788,09	61,194
788,27	55,302
788,44	57,573
788,62	59,284
788,79	57,405
788,97	59,651
789,14	56,549
789,32	56,800
789,49	58,974
789,67	56,981
789,84	54,811
790,02	55,713
790,19	57,026
790,37	58,877
790,54	57,044
790,72	64,906
790,89	63,073
791,07	60,979
791,24	53,931
791,42	58,958
791,59	57,732
791,77	58,148
791,94	56,269
792,12	58,731
792,29	57,923
792,47	59,856
792,64	60,643
792,81	58,494
792,99	56,582
793,16	56,645
793,34	57,143
793,51	55,880
793,69	61,457
793,86	57,135
794,04	56,975
794,21	60,074
794,39	55,407
794,56	59,526
794,73	57,916
794,91	59,540
795,08	60,549
795,26	56,649
795,43	57,514
795,61	57,958
795,78	62,813
795,95	59,458
796,13	58,792
796,30	56,644
796,48	54,408
796,65	55,639
796,83	59,290
797,00	62,727
797,17	55,931
797,35	59,085
797,52	56,825
797,70	65,049
797,87	59,561
798,04	53,406
798,22	60,020
798,39	57,982
798,57	55,873
798,74	58,971
798,91	57,374
799,09	60,042
799,26	57,929
799,44	57,719
799,61	59,800
799,78	56,383
799,96	60,199
800,13	55,077
800,31	57,204
800,48	64,238
800,65	60,114
800,83	57,176
801,00	58,811
801,17	58,301
801,35	62,309
801,52	58,404
801,70	57,285
801,87	59,896
802,04	62,447
802,22	58,448
802,39	55,366
802,56	62,143
802,74	57,658
802,91	57,048
803,08	56,986
803,26	56,639
803,43	62,325
803,61	61,088
803,78	59,691
803,95	56,099
804,13	63,129
804,30	54,582
804,47	62,203
804,65	59,606
804,82	55,218
804,99	56,253
805,17	60,375
805,34	64,959
805,51	61,574
805,69	57,166
805,86	59,138
806,03	61,206
806,21	60,619
806,38	60,749
806,55	60,695
806,72	64,579
806,90	59,965
807,07	60,858
807,24	57,086
807,42	57,984
807,59	61,432
807,76	51,022
807,94	57,655
808,11	61,241
808,28	64,225
808,45	61,571
808,63	59,279
808,80	59,814
808,97	59,094
809,15	57,095
809,32	60,533
809,49	58,247
809,67	58,105
809,84	60,203
810,01	63,924
810,18	69,025
810,36	59,176
810,53	61,574
810,70	59,399
810,87	62,614
811,05	57,900
811,22	60,869
811,39	59,049
811,57	61,630
811,74	64,553
811,91	59,593
812,08	63,748
812,26	60,114
812,43	58,120
812,60	59,938
812,77	57,727
812,95	64,858
813,12	59,051
813,29	56,420
813,46	63,064
813,64	60,922
813,81	63,278
813,98	63,851
814,15	58,276
814,32	65,282
814,50	57,994
814,67	62,800
814,84	59,719
815,01	60,043
815,19	53,554
815,36	54,927
815,53	59,417
815,70	57,420
815,87	61,287
816,05	51,396
816,22	59,137
816,39	67,793
816,56	66,836
816,74	65,152
816,91	65,857
817,08	65,041
817,25	60,630
817,42	59,580
817,60	58,001
817,77	64,677
817,94	59,835
818,11	60,194
818,28	62,082
818,45	64,005
818,63	60,538
818,80	61,484
818,97	60,075
819,14	66,193
819,31	67,948
819,49	67,118
819,66	59,075
819,83	62,707
820,00	64,546
820,17	57,996
820,34	61,064
820,52	66,526
820,69	64,165
820,86	55,839
821,03	62,178
821,20	67,513
821,37	67,915
821,55	55,533
821,72	57,118
821,89	58,172
822,06	69,584
822,23	60,296
822,40	60,649
822,57	60,065
822,75	65,709
822,92	57,324
823,09	62,595
823,26	61,243
823,43	64,511
823,60	57,711
823,77	59,128
823,94	70,693
824,12	68,941
824,29	60,676
824,46	61,038
824,63	64,197
824,80	62,443
824,97	59,390
825,14	61,861
825,31	63,062
825,49	67,752
825,66	55,996
825,83	60,318
826,00	60,518
826,17	68,026
826,34	62,004
826,51	58,294
826,68	59,926
826,85	59,106
827,02	53,537
827,20	58,364
827,37	59,996
827,54	67,623
827,71	70,634
827,88	64,775
828,05	68,639
828,22	60,129
828,39	70,706
828,56	65,856
828,73	64,334
828,90	62,803
829,07	55,897
829,25	64,000
829,42	66,005
829,59	62,082
829,76	59,887
829,93	58,909
830,10	66,016
830,27	58,177
830,44	63,626
830,61	59,658
830,78	71,918
830,95	63,107
831,12	56,906
831,29	59,032
831,46	61,203
831,63	61,603
831,80	55,897
831,97	58,312
832,14	72,073
832,31	74,326
832,48	60,263
832,65	67,093
832,83	68,251
833,00	63,726
833,17	65,747
833,34	62,550
833,51	62,334
833,68	75,516
833,85	69,890
834,02	62,498
834,19	60,395
834,36	74,271
834,53	53,697
834,70	64,817
834,87	70,710
835,04	65,041
835,21	58,316
835,38	60,841
835,55	62,896
835,72	74,285
835,89	61,111
836,06	61,601
836,23	73,840
836,40	59,533
836,57	62,024
836,74	63,108
836,91	64,703
837,08	69,099
837,25	66,464
837,42	61,011
837,59	63,556
837,76	65,949
837,93	63,094
838,09	54,306
838,26	68,586
838,43	70,470
838,60	68,946
838,77	57,577
838,94	77,357
839,11	69,625
839,28	63,375
839,45	69,106
839,62	64,762
839,79	64,760
839,96	67,454
840,13	73,639
840,30	55,044
840,47	56,181
840,64	58,049
840,81	64,348
840,98	63,880
841,15	77,586
841,32	56,680
841,48	74,342
841,65	73,922
841,82	61,697
841,99	68,743
842,16	57,165
842,33	68,344
842,50	69,075
842,67	67,159
842,84	61,275
843,01	65,681
843,18	63,830
843,35	59,071
843,52	61,558
843,68	61,270
843,85	74,650
844,02	64,236
844,19	55,020
844,36	70,557
844,53	74,099
844,70	64,878
844,87	78,523
845,04	64,172
845,21	51,089
845,37	70,799
845,54	65,363
845,71	63,108
845,88	79,386
846,05	57,983
846,22	56,739
846,39	62,307
846,56	74,227
846,72	54,030
846,89	60,056
847,06	79,739
847,23	67,711
847,40	65,077
847,57	51,040
847,74	69,512
847,90	81,766
848,07	70,284
848,24	63,978
848,41	65,841
848,58	75,784
848,75	66,255
848,92	61,638
849,08	62,087
849,25	66,916
849,42	54,069
849,59	74,233
849,76	68,460
849,93	60,011
850,09	66,771
850,26	55,579
850,43	74,529
850,60	62,084
850,77	67,302
850,94	66,672
851,10	61,336
851,27	61,519
851,44	66,598
851,61	49,116
851,78	77,486
851,95	67,987
852,11	57,767
852,28	68,336
852,45	79,226
852,62	66,507
852,79	70,162
852,95	58,274
853,12	73,037
853,29	60,532
853,46	57,799
853,63	68,001
853,79	67,213
853,96	63,202
854,13	69,642
854,30	63,465
854,46	83,458
854,63	70,809
854,80	73,409
854,97	58,385
855,14	74,944
855,30	73,874
855,47	63,520
855,64	69,043
855,81	55,260
855,97	77,199
856,14	64,278
856,31	50,389
856,48	78,025
856,65	89,566
856,81	59,020
856,98	62,164
857,15	60,554
857,32	73,875
857,48	51,006
857,65	79,896
857,82	59,799
857,99	83,424
858,15	61,393
858,32	62,168
858,49	73,954
858,65	94,586
858,82	77,032
858,99	53,063
859,16	68,145
859,32	78,451
859,49	65,033
859,66	62,512
859,83	66,000
859,99	68,463
860,16	64,610
860,33	61,103
860,49	80,978
860,66	72,138
860,83	68,246
861,00	63,724
861,16	79,165
861,33	76,256
861,50	70,916
861,66	67,408
861,83	87,986
862,00	73,735
862,16	72,027
862,33	65,485
862,50	107,601
862,67	75,972
862,83	57,539
863,00	76,862
863,17	89,249
863,33	74,579
863,50	36,466
863,67	61,771
863,83	84,910
864,00	86,553
864,17	51,386
864,33	72,060
864,50	75,366
864,67	62,399
864,83	55,164
865,00	48,783
865,17	59,466
865,33	72,685
865,50	65,631
865,67	57,168
865,83	75,858
866,00	125,868
866,17	71,483
866,33	80,249
866,50	103,801
866,66	73,544
866,83	88,049
867,00	83,934
867,16	92,972
867,33	74,749
867,50	50,389
867,66	67,379
867,83	90,454
868,00	96,921
868,16	59,500
868,33	55,523
868,49	71,752
868,66	88,480
868,83	78,576
868,99	68,985
869,16	112,312
869,32	90,275
869,49	66,464
869,66	47,514
869,82	94,917
869,99	98,223
870,15	72,531
870,32	82,945
870,49	91,929
870,65	132,416
870,82	83,277
870,98	71,542
871,15	112,796
871,32	67,473
871,48	54,435
871,65	56,032
871,81	72,199
871,98	76,403
872,15	60,256
872,31	52,727
872,48	132,354
872,64	80,772
872,81	44,219
872,97	69,606
873,14	100,479
873,31	105,216
873,47	91,173
873,64	103,748
873,80	123,861
873,97	118,144
874,13	57,391
874,30	65,308
874,46	76,679
874,63	70,029
874,80	71,196
874,96	43,141
875,13	143,731
875,29	88,424
875,46	99,617
875,62	43,187
875,79	105,491
875,95	90,173
876,12	54,886
876,28	24,042
876,45	126,128
876,61	99,915
876,78	76,169
876,94	32,305
877,11	121,481
877,27	108,059
877,44	37,179
877,60	59,115
877,77	110,425
877,94	102,414
878,10	94,159
878,27	97,179
878,43	125,411
878,60	53,387
878,76	80,144
878,93	87,499
879,09	146,295
879,26	169,570
879,42	88,789
879,58	105,791
879,75	99,148
879,91	141,238
880,08	30,847
880,24	68,481
880,41	103,845
880,57	135,379
880,74	57,906
880,90	73,455
881,07	67,359
881,23	93,271
881,40	71,477
881,56	105,776
881,73	96,283
881,89	110,839
882,06	62,562
882,22	178,422
882,38	146,763
882,55	185,848
882,71	58,861
882,88	69,825
883,04	163,466
883,21	197,732
883,37	58,353
883,54	111,057
883,70	225,887
883,86	103,762
884,03	66,289
884,19	54,458
884,36	191,988
884,52	223,595
884,69	47,135
884,85	67,971
885,01	208,475
885,18	152,871
885,34	194,414
885,51	-10,968
885,67	119,849
>>>>> Data<<<<< Espectral Procesado Extremo
