Fichero De Datos De SpectraSuite
++++++++++++++++++++++++++++++++++++
Fecha: Wed Apr 22 12:07:23 CEST 2009
Usuario: evoflor
Presente Oscuro Del Espectro: Sí
La Referencia de Presente Del Espectro De: Sí
Muestreados de los componentes de Número de espectros: 1
Espectrómetros: USB4F02353
Tiempo de integración (usec): 500000 (USB4F02353)
Promedio de Espectros Hechos un: 5 (USB4F02353)
El Alisar Del Furgón: 0 (USB4F02353)
Párrafo de de Corregir del la del del de Eléctrica del obscuridad: Sí (USB4F02353)
Estrobo/Lámpara Permitido: No (USB4F02353)
Correct for Detector Non-linearity: No (USB4F02353)
Párrafo de de Corregir del la del del de Externa del luz: No (USB4F02353)
Procesado del espectro de Número de pixeles en: 3648
>>>>> Comienza Data<<<<< Espectral Procesado Del EL
177,79	158,187
178,00	158,187
178,22	158,187
178,44	1858,242
178,66	-262,334
178,88	251,792
179,09	-188,085
179,31	198,957
179,53	599,381
179,75	322,892
179,96	714,655
180,18	-349,231
180,40	714,013
180,62	420,424
180,83	-185,537
181,05	-396,341
181,27	-168400,000
181,49	42,826
181,70	204,615
181,92	585,279
182,14	583,133
182,36	247,610
182,58	233,000
182,79	840,179
183,01	-62,823
183,23	217,804
183,45	-33,538
183,66	-92,035
183,88	831,765
184,10	-1016,364
184,32	26,980
184,53	248,555
184,75	-135,420
184,97	63,854
185,18	-201,504
185,40	-502,404
185,62	122,245
185,84	116,157
186,05	124,642
186,27	-220,962
186,49	3326,923
186,71	48,808
186,92	139,420
187,14	-180,403
187,36	123,213
187,58	-7,594
187,79	79,179
188,01	249,150
188,23	-327,557
188,45	44,695
188,66	418,304
188,88	-1801,818
189,10	-982,000
189,31	101,195
189,53	8,394
189,75	364,318
189,97	311,923
190,18	-3,433
190,40	397,647
190,62	-283,627
190,83	-164,786
191,05	197,615
191,27	128,857
191,49	561,634
191,70	-320,673
191,92	-1000,000
192,14	-43,250
192,35	640,053
192,57	2754,286
192,79	-217,559
193,01	253,770
193,22	138,287
193,44	-103,072
193,66	147,549
193,87	96,574
194,09	39,064
194,31	133,254
194,53	164,336
194,74	172,903
194,96	42,711
195,18	109,242
195,39	-147,493
195,61	-49,633
195,83	-184,130
196,04	123,502
196,26	-190,452
196,48	-71,945
196,70	234,592
196,91	54,528
197,13	84,557
197,35	-21,079
197,56	540,867
197,78	1303,731
198,00	434,965
198,21	699,515
198,43	-775,000
198,65	185,493
198,86	282,014
199,08	292,459
199,30	255,263
199,51	-264,169
199,73	205,563
199,95	336,634
200,16	481,538
200,38	115,188
200,60	235,093
200,81	233,405
201,03	242,391
201,25	-1477,000
201,46	163,415
201,68	15,363
201,90	2518,182
202,11	-172,137
202,33	14,722
202,55	946,250
202,76	-97,941
202,98	169,686
203,20	-74,038
203,41	-616,316
203,63	87,581
203,85	-195400,000
204,06	54,524
204,28	-145,542
204,50	157,268
204,71	402,473
204,93	166,400
205,15	409,639
205,36	-127,533
205,58	295,585
205,80	19,141
206,01	120,798
206,23	80,961
206,45	199,425
206,66	137,232
206,88	-50,084
207,10	176,136
207,31	367,285
207,53	411,714
207,75	108,852
207,96	1008,209
208,18	-195,222
208,39	95,069
208,61	1957,143
208,83	-384,829
209,04	214,133
209,26	-315,668
209,48	191,650
209,69	130,806
209,91	687,500
210,13	50,111
210,34	163,680
210,56	250,299
210,77	-1644,882
210,99	180,636
211,21	5141,176
211,42	-94,745
211,64	-48,249
211,86	123,895
212,07	167,919
212,29	209,375
212,50	135,178
212,72	218,462
212,94	156,130
213,15	132,904
213,37	46,161
213,58	-167,849
213,80	-3282,143
214,02	10805,882
214,23	259,672
214,45	425,246
214,67	-1439,024
214,88	132,550
215,10	-329,754
215,31	-153,057
215,53	8,409
215,75	191,130
215,96	1487,578
216,18	52,113
216,39	176,634
216,61	432,533
216,83	137,054
217,04	1507,865
217,26	37,903
217,47	164,960
217,69	321,468
217,91	152,835
218,12	-153100,000
218,34	155,963
218,55	437,135
218,77	39,397
218,99	21,743
219,20	-178,209
219,42	322,561
219,63	80,384
219,85	-134,951
220,06	159,615
220,28	186,711
220,50	62,705
220,71	29,064
220,93	3296,226
221,14	-1873,000
221,36	80,688
221,58	55,455
221,79	148,426
222,01	2157,759
222,22	515,789
222,44	-464,045
222,65	104,104
222,87	101,399
223,09	143,025
223,30	24,327
223,52	184,488
223,73	212,619
223,95	-91,127
224,16	285,979
224,38	394,787
224,60	93,857
224,81	154,756
225,03	104,185
225,24	172,767
225,46	25,581
225,67	-4,121
225,89	-38,743
226,10	482,831
226,32	425,600
226,54	39,084
226,75	-27,752
226,97	90,581
227,18	124,143
227,40	-1,304
227,61	91,278
227,83	41,131
228,04	124,066
228,26	55,051
228,47	50,374
228,69	179,686
228,91	88,580
229,12	84,003
229,34	32,667
229,55	53,555
229,77	10,734
229,98	11,711
230,20	91,502
230,41	-4,103
230,63	90,638
230,84	-8,533
231,06	57,098
231,27	8,132
231,49	50,358
231,71	43,214
231,92	38,283
232,14	11,474
232,35	89,826
232,57	-1,000
232,78	4,811
233,00	7,624
233,21	36,662
233,43	11,087
233,64	10,006
233,86	33,197
234,07	29,849
234,29	16,661
234,50	18,021
234,72	43,174
234,93	22,204
235,15	27,562
235,36	26,017
235,58	26,642
235,79	39,697
236,01	22,129
236,22	22,386
236,44	28,499
236,65	10,020
236,87	23,383
237,08	-0,699
237,30	-8,124
237,51	18,622
237,73	-8,046
237,94	-1,588
238,16	26,533
238,37	13,985
238,59	11,845
238,80	8,434
239,02	4,888
239,23	16,074
239,45	-11,099
239,66	24,577
239,88	26,083
240,09	25,509
240,31	3,961
240,52	8,441
240,74	18,609
240,95	7,439
241,17	4,925
241,38	13,127
241,60	10,923
241,81	23,304
242,03	5,386
242,24	12,007
242,46	22,018
242,67	0,009
242,89	12,950
243,10	9,588
243,32	12,379
243,53	12,193
243,75	4,270
243,96	6,992
244,18	12,527
244,39	4,264
244,60	10,513
244,82	1,169
245,03	16,780
245,25	13,059
245,46	15,272
245,68	4,101
245,89	21,181
246,11	12,836
246,32	11,672
246,54	1,408
246,75	13,073
246,97	5,738
247,18	13,619
247,39	6,514
247,61	10,575
247,82	3,827
248,04	4,747
248,25	5,644
248,47	9,339
248,68	8,856
248,90	-1,122
249,11	5,972
249,33	17,216
249,54	2,518
249,75	7,536
249,97	2,449
250,18	10,091
250,40	15,521
250,61	-4,049
250,83	2,831
251,04	1,563
251,25	9,385
251,47	3,124
251,68	7,496
251,90	7,128
252,11	9,350
252,33	1,499
252,54	10,207
252,76	5,996
252,97	4,577
253,18	-2,327
253,40	6,494
253,61	0,528
253,83	11,607
254,04	9,445
254,25	2,764
254,47	3,559
254,68	10,420
254,90	5,598
255,11	2,783
255,33	7,722
255,54	2,633
255,75	-0,532
255,97	5,187
256,18	2,031
256,40	5,298
256,61	7,301
256,82	-0,453
257,04	7,529
257,25	-0,605
257,47	4,902
257,68	2,360
257,89	5,389
258,11	5,531
258,32	3,475
258,54	4,152
258,75	5,439
258,96	11,281
259,18	3,985
259,39	3,098
259,61	6,727
259,82	5,384
260,03	11,024
260,25	5,913
260,46	6,309
260,68	5,676
260,89	0,524
261,10	5,227
261,32	3,997
261,53	5,196
261,75	4,519
261,96	-4,445
262,17	12,354
262,39	12,155
262,60	2,324
262,81	-3,110
263,03	10,877
263,24	3,945
263,46	3,080
263,67	2,300
263,88	5,031
264,10	4,555
264,31	2,079
264,52	4,357
264,74	6,572
264,95	0,535
265,17	5,378
265,38	1,197
265,59	8,670
265,81	10,888
266,02	-1,310
266,23	4,416
266,45	9,330
266,66	7,290
266,87	3,811
267,09	3,704
267,30	4,702
267,52	8,571
267,73	2,235
267,94	4,428
268,16	6,310
268,37	6,012
268,58	5,422
268,80	1,473
269,01	3,753
269,22	10,648
269,44	5,932
269,65	7,169
269,86	2,134
270,08	6,944
270,29	2,427
270,50	5,699
270,72	9,167
270,93	2,651
271,14	1,319
271,36	3,379
271,57	6,415
271,78	4,795
272,00	4,862
272,21	7,783
272,42	4,144
272,64	7,418
272,85	2,790
273,06	0,382
273,28	7,462
273,49	8,113
273,70	5,339
273,92	2,957
274,13	7,525
274,34	3,661
274,56	6,676
274,77	1,108
274,98	4,269
275,20	5,708
275,41	6,916
275,62	5,844
275,84	5,443
276,05	9,261
276,26	6,422
276,47	2,126
276,69	5,802
276,90	8,985
277,11	0,769
277,33	2,918
277,54	6,826
277,75	7,768
277,97	4,292
278,18	1,925
278,39	6,259
278,61	1,226
278,82	7,232
279,03	4,590
279,24	3,720
279,46	1,599
279,67	5,844
279,88	4,277
280,10	9,684
280,31	1,461
280,52	7,147
280,73	1,454
280,95	6,874
281,16	6,929
281,37	5,176
281,59	9,959
281,80	7,758
282,01	2,281
282,22	3,462
282,44	0,415
282,65	9,564
282,86	6,568
283,08	5,875
283,29	4,934
283,50	3,372
283,71	5,810
283,93	3,873
284,14	6,964
284,35	3,218
284,56	5,291
284,78	1,563
284,99	3,293
285,20	6,529
285,42	2,799
285,63	1,022
285,84	1,419
286,05	0,947
286,27	4,696
286,48	-0,711
286,69	0,412
286,90	3,228
287,12	3,386
287,33	-1,100
287,54	4,254
287,75	3,722
287,97	6,839
288,18	5,070
288,39	0,900
288,60	4,384
288,82	4,119
289,03	2,806
289,24	5,674
289,45	8,350
289,67	4,689
289,88	3,184
290,09	4,142
290,30	6,395
290,52	2,468
290,73	-0,132
290,94	2,092
291,15	3,801
291,37	6,112
291,58	2,132
291,79	2,432
292,00	6,158
292,21	6,892
292,43	4,272
292,64	3,137
292,85	1,262
293,06	7,276
293,28	2,921
293,49	1,745
293,70	7,194
293,91	3,466
294,12	6,460
294,34	2,563
294,55	3,772
294,76	2,977
294,97	4,147
295,19	-0,239
295,40	4,657
295,61	5,447
295,82	2,426
296,03	6,406
296,25	3,806
296,46	0,412
296,67	2,724
296,88	-0,022
297,09	7,055
297,31	4,473
297,52	4,017
297,73	2,016
297,94	6,063
298,15	2,712
298,37	3,357
298,58	3,658
298,79	6,194
299,00	3,356
299,21	0,911
299,43	2,458
299,64	7,245
299,85	3,897
300,06	0,498
300,27	3,629
300,49	7,127
300,70	3,420
300,91	2,576
301,12	3,856
301,33	6,010
301,54	2,113
301,76	1,907
301,97	1,404
302,18	3,933
302,39	7,749
302,60	11,851
302,82	4,964
303,03	6,290
303,24	2,172
303,45	5,940
303,66	0,078
303,87	2,357
304,09	6,939
304,30	2,238
304,51	2,548
304,72	2,474
304,93	6,768
305,14	3,768
305,36	-0,436
305,57	0,051
305,78	3,666
305,99	4,045
306,20	1,686
306,41	1,101
306,62	2,341
306,84	2,485
307,05	0,223
307,26	5,495
307,47	8,400
307,68	4,036
307,89	3,373
308,11	3,930
308,32	3,478
308,53	4,735
308,74	0,840
308,95	2,829
309,16	6,310
309,37	5,707
309,59	1,218
309,80	4,530
310,01	3,259
310,22	5,938
310,43	3,325
310,64	3,369
310,85	4,382
311,06	2,377
311,28	4,718
311,49	2,472
311,70	6,434
311,91	1,229
312,12	3,248
312,33	4,879
312,54	3,892
312,75	3,189
312,97	4,183
313,18	4,844
313,39	2,583
313,60	5,376
313,81	6,280
314,02	4,579
314,23	5,896
314,44	1,159
314,65	2,903
314,87	-0,323
315,08	2,620
315,29	5,219
315,50	5,269
315,71	5,760
315,92	6,403
316,13	6,894
316,34	5,169
316,55	5,233
316,77	0,078
316,98	1,394
317,19	1,743
317,40	6,195
317,61	8,182
317,82	2,255
318,03	2,951
318,24	2,157
318,45	6,684
318,66	4,061
318,87	0,565
319,09	5,219
319,30	5,858
319,51	5,975
319,72	5,575
319,93	4,566
320,14	5,443
320,35	6,258
320,56	3,007
320,77	0,598
320,98	9,594
321,19	2,782
321,40	3,677
321,62	6,535
321,83	3,547
322,04	4,899
322,25	3,305
322,46	6,256
322,67	4,844
322,88	3,077
323,09	3,490
323,30	6,747
323,51	6,773
323,72	6,809
323,93	3,012
324,14	3,339
324,35	0,897
324,56	-0,199
324,77	2,058
324,99	2,354
325,20	-0,377
325,41	2,566
325,62	3,947
325,83	2,272
326,04	2,381
326,25	3,951
326,46	1,506
326,67	2,605
326,88	3,746
327,09	3,332
327,30	1,893
327,51	4,860
327,72	5,729
327,93	5,991
328,14	0,312
328,35	3,606
328,56	4,405
328,77	2,142
328,98	5,223
329,19	5,528
329,40	4,748
329,61	5,700
329,82	0,622
330,04	1,189
330,25	4,234
330,46	3,438
330,67	3,418
330,88	3,029
331,09	3,207
331,30	2,602
331,51	2,385
331,72	3,615
331,93	5,227
332,14	3,526
332,35	4,098
332,56	4,422
332,77	6,156
332,98	0,660
333,19	2,289
333,40	5,212
333,61	0,424
333,82	5,672
334,03	6,595
334,24	5,343
334,45	3,006
334,66	5,386
334,87	5,730
335,08	2,891
335,29	0,241
335,50	3,430
335,71	3,490
335,92	4,421
336,13	5,188
336,34	3,117
336,55	4,324
336,76	6,238
336,97	5,081
337,18	2,402
337,39	3,321
337,60	2,221
337,81	3,173
338,02	4,302
338,23	4,768
338,44	4,389
338,65	3,163
338,86	4,157
339,07	0,296
339,28	2,648
339,49	3,414
339,70	-0,305
339,91	4,039
340,11	7,390
340,32	1,740
340,53	1,638
340,74	1,581
340,95	2,599
341,16	4,046
341,37	3,589
341,58	0,944
341,79	4,974
342,00	2,880
342,21	0,344
342,42	5,962
342,63	3,709
342,84	0,088
343,05	2,335
343,26	8,888
343,47	2,572
343,68	1,244
343,89	2,306
344,10	3,355
344,31	3,943
344,52	1,591
344,73	4,161
344,94	2,111
345,14	4,249
345,35	8,397
345,56	2,545
345,77	1,041
345,98	1,457
346,19	4,418
346,40	2,152
346,61	3,458
346,82	3,073
347,03	2,199
347,24	3,144
347,45	2,972
347,66	5,536
347,87	2,328
348,08	2,664
348,28	-1,480
348,49	4,753
348,70	7,521
348,91	4,982
349,12	2,285
349,33	18,019
349,54	3,947
349,75	3,095
349,96	3,608
350,17	6,064
350,38	2,020
350,59	6,550
350,80	3,460
351,00	6,282
351,21	6,111
351,42	2,986
351,63	0,341
351,84	6,543
352,05	6,744
352,26	2,889
352,47	2,514
352,68	5,415
352,89	6,317
353,09	4,574
353,30	0,756
353,51	3,958
353,72	4,845
353,93	3,072
354,14	0,928
354,35	4,511
354,56	4,760
354,77	2,883
354,98	-2,120
355,18	5,440
355,39	6,237
355,60	3,698
355,81	3,729
356,02	3,132
356,23	7,188
356,44	-0,416
356,65	4,549
356,85	5,003
357,06	5,274
357,27	3,856
357,48	0,123
357,69	7,136
357,90	7,376
358,11	0,526
358,32	2,360
358,52	7,576
358,73	5,764
358,94	2,397
359,15	7,314
359,36	4,645
359,57	3,675
359,78	5,786
359,98	3,546
360,19	-1,262
360,40	5,144
360,61	7,966
360,82	0,983
361,03	6,181
361,24	4,174
361,44	3,119
361,65	2,183
361,86	2,951
362,07	3,908
362,28	1,105
362,49	2,711
362,70	4,180
362,90	6,078
363,11	0,715
363,32	2,746
363,53	3,992
363,74	5,588
363,95	4,755
364,15	6,780
364,36	5,059
364,57	4,662
364,78	3,094
364,99	3,344
365,20	5,159
365,40	5,607
365,61	4,081
365,82	8,253
366,03	6,496
366,24	6,886
366,45	2,759
366,65	4,415
366,86	2,653
367,07	5,633
367,28	0,959
367,49	4,131
367,69	9,656
367,90	4,831
368,11	2,467
368,32	2,521
368,53	5,003
368,73	7,274
368,94	0,483
369,15	1,436
369,36	6,740
369,57	5,322
369,78	1,658
369,98	4,042
370,19	9,760
370,40	3,926
370,61	4,447
370,82	3,165
371,02	5,535
371,23	10,313
371,44	7,169
371,65	2,845
371,85	5,967
372,06	5,941
372,27	3,575
372,48	4,783
372,69	5,665
372,89	1,405
373,10	1,519
373,31	2,075
373,52	4,683
373,73	8,706
373,93	4,768
374,14	3,261
374,35	9,253
374,56	8,218
374,76	5,017
374,97	1,005
375,18	5,252
375,39	3,747
375,60	5,479
375,80	3,455
376,01	2,068
376,22	4,677
376,43	2,357
376,63	5,387
376,84	1,504
377,05	3,051
377,26	0,899
377,46	-0,878
377,67	3,243
377,88	5,146
378,09	5,096
378,29	1,597
378,50	5,104
378,71	5,827
378,92	3,806
379,12	4,479
379,33	5,187
379,54	3,958
379,75	6,967
379,95	3,638
380,16	8,240
380,37	7,766
380,58	6,310
380,78	6,357
380,99	4,002
381,20	5,513
381,41	3,819
381,61	4,852
381,82	7,963
382,03	3,207
382,24	4,778
382,44	6,054
382,65	5,486
382,86	6,534
383,06	3,683
383,27	3,745
383,48	1,558
383,69	5,205
383,89	7,740
384,10	5,723
384,31	2,372
384,51	6,328
384,72	7,623
384,93	2,930
385,14	5,817
385,34	6,131
385,55	5,470
385,76	3,844
385,96	6,602
386,17	6,440
386,38	8,292
386,59	7,721
386,79	6,203
387,00	8,819
387,21	12,020
387,41	7,681
387,62	4,460
387,83	7,420
388,03	5,233
388,24	2,502
388,45	7,075
388,66	8,746
388,86	6,917
389,07	0,444
389,28	10,627
389,48	3,973
389,69	2,651
389,90	6,362
390,10	6,974
390,31	13,180
390,52	-1,390
390,72	2,940
390,93	7,462
391,14	4,027
391,34	5,321
391,55	10,354
391,76	12,416
391,96	4,757
392,17	7,389
392,38	8,075
392,58	6,737
392,79	5,252
393,00	6,012
393,20	5,141
393,41	6,616
393,62	8,913
393,82	9,297
394,03	7,280
394,24	8,569
394,44	11,342
394,65	11,312
394,86	5,418
395,06	9,994
395,27	7,041
395,48	7,255
395,68	10,865
395,89	10,846
396,10	8,779
396,30	8,965
396,51	5,653
396,72	10,239
396,92	8,607
397,13	10,816
397,34	5,967
397,54	12,012
397,75	7,889
397,95	7,109
398,16	7,661
398,37	13,135
398,57	8,485
398,78	12,512
398,99	14,290
399,19	10,984
399,40	14,112
399,60	9,407
399,81	15,476
400,02	11,898
400,22	10,212
400,43	11,624
400,64	11,056
400,84	10,682
401,05	15,211
401,25	14,921
401,46	14,348
401,67	16,416
401,87	15,039
402,08	11,531
402,29	11,721
402,49	17,324
402,70	13,979
402,90	10,890
403,11	13,920
403,32	16,203
403,52	15,401
403,73	15,693
403,93	18,567
404,14	18,736
404,35	15,521
404,55	14,127
404,76	12,684
404,96	20,301
405,17	19,533
405,38	18,769
405,58	18,371
405,79	20,403
405,99	19,575
406,20	14,886
406,40	14,920
406,61	21,097
406,82	17,870
407,02	18,919
407,23	16,426
407,43	20,462
407,64	18,601
407,85	16,888
408,05	15,073
408,26	27,867
408,46	21,678
408,67	18,386
408,87	20,140
409,08	21,174
409,29	23,779
409,49	21,201
409,70	22,915
409,90	22,784
410,11	19,486
410,31	24,759
410,52	20,863
410,72	21,739
410,93	22,108
411,14	21,506
411,34	19,474
411,55	21,985
411,75	24,006
411,96	23,560
412,16	25,893
412,37	21,043
412,57	24,033
412,78	25,066
412,99	21,741
413,19	25,701
413,40	25,688
413,60	21,252
413,81	19,893
414,01	27,998
414,22	21,129
414,42	24,217
414,63	23,108
414,83	21,248
415,04	27,897
415,24	23,998
415,45	21,866
415,65	24,326
415,86	29,463
416,07	24,790
416,27	27,706
416,48	31,335
416,68	30,070
416,89	20,826
417,09	24,440
417,30	28,095
417,50	22,961
417,71	27,596
417,91	27,734
418,12	24,949
418,32	27,930
418,53	27,478
418,73	26,292
418,94	24,891
419,14	26,505
419,35	23,718
419,55	25,487
419,76	29,605
419,96	26,858
420,17	26,264
420,37	30,314
420,58	32,644
420,78	28,670
420,99	31,198
421,19	30,530
421,40	29,079
421,60	28,854
421,81	26,859
422,01	28,027
422,22	30,507
422,42	31,165
422,63	27,552
422,83	29,782
423,04	28,729
423,24	33,799
423,45	25,077
423,65	28,946
423,86	33,279
424,06	32,640
424,27	29,014
424,47	30,803
424,67	28,744
424,88	30,560
425,08	27,679
425,29	34,724
425,49	28,710
425,70	21,966
425,90	31,012
426,11	28,400
426,31	31,501
426,52	29,451
426,72	27,943
426,93	25,423
427,13	30,686
427,33	31,534
427,54	34,178
427,74	33,374
427,95	34,169
428,15	25,813
428,36	27,400
428,56	31,128
428,77	30,853
428,97	27,345
429,18	30,319
429,38	31,440
429,58	30,859
429,79	32,042
429,99	28,107
430,20	24,832
430,40	30,927
430,61	28,893
430,81	25,914
431,01	34,450
431,22	29,878
431,42	35,738
431,63	31,953
431,83	30,033
432,04	30,677
432,24	34,345
432,44	29,768
432,65	23,106
432,85	26,776
433,06	32,118
433,26	30,577
433,47	26,898
433,67	28,723
433,87	29,495
434,08	28,188
434,28	26,346
434,49	29,259
434,69	33,316
434,89	25,562
435,10	30,637
435,30	32,906
435,51	25,510
435,71	30,625
435,91	29,420
436,12	25,766
436,32	27,050
436,53	29,886
436,73	32,688
436,93	32,137
437,14	31,201
437,34	30,418
437,55	30,306
437,75	30,271
437,95	36,938
438,16	32,698
438,36	32,159
438,57	28,322
438,77	28,497
438,97	32,903
439,18	36,729
439,38	33,126
439,58	27,881
439,79	31,938
439,99	28,820
440,20	38,343
440,40	34,418
440,60	27,384
440,81	33,743
441,01	30,666
441,21	32,328
441,42	33,880
441,62	32,648
441,83	33,483
442,03	34,628
442,23	35,009
442,44	31,466
442,64	31,834
442,84	31,364
443,05	29,113
443,25	31,236
443,45	32,317
443,66	32,314
443,86	25,865
444,06	31,084
444,27	29,119
444,47	31,074
444,67	30,138
444,88	32,980
445,08	31,544
445,28	32,368
445,49	29,052
445,69	28,801
445,90	33,083
446,10	35,644
446,30	34,060
446,51	30,955
446,71	35,311
446,91	36,045
447,12	37,625
447,32	31,116
447,52	33,920
447,72	34,698
447,93	33,782
448,13	29,391
448,33	40,134
448,54	36,267
448,74	29,146
448,94	33,160
449,15	40,519
449,35	31,728
449,55	32,306
449,76	37,549
449,96	34,631
450,16	34,129
450,37	29,273
450,57	33,749
450,77	30,757
450,98	35,248
451,18	34,479
451,38	33,987
451,58	33,402
451,79	34,010
451,99	36,128
452,19	33,110
452,40	34,209
452,60	30,368
452,80	30,520
453,00	35,562
453,21	31,876
453,41	35,741
453,61	35,226
453,82	36,552
454,02	30,673
454,22	37,496
454,42	32,430
454,63	34,360
454,83	33,352
455,03	33,030
455,24	35,329
455,44	32,415
455,64	35,286
455,84	33,936
456,05	33,047
456,25	32,659
456,45	30,664
456,65	32,942
456,86	33,439
457,06	32,762
457,26	33,719
457,47	35,958
457,67	34,722
457,87	30,890
458,07	33,456
458,28	37,636
458,48	33,497
458,68	28,312
458,88	33,692
459,09	35,028
459,29	36,424
459,49	29,457
459,69	33,496
459,90	38,178
460,10	30,593
460,30	35,824
460,50	32,427
460,71	39,182
460,91	29,458
461,11	29,572
461,31	29,559
461,52	36,973
461,72	30,191
461,92	32,677
462,12	38,504
462,32	30,709
462,53	34,504
462,73	32,806
462,93	37,122
463,13	33,989
463,34	32,634
463,54	36,125
463,74	37,791
463,94	33,715
464,14	32,534
464,35	29,760
464,55	37,438
464,75	37,769
464,95	35,071
465,16	28,256
465,36	38,025
465,56	26,150
465,76	33,615
465,96	30,769
466,17	33,267
466,37	31,066
466,57	34,977
466,77	33,266
466,97	31,017
467,18	35,334
467,38	33,762
467,58	34,222
467,78	37,990
467,98	36,059
468,19	37,263
468,39	35,144
468,59	35,904
468,79	32,146
468,99	31,776
469,19	31,103
469,40	35,233
469,60	22,752
469,80	29,307
470,00	36,033
470,20	36,627
470,41	33,449
470,61	34,985
470,81	35,108
471,01	35,269
471,21	34,914
471,41	31,104
471,62	33,646
471,82	31,753
472,02	27,416
472,22	33,163
472,42	29,943
472,62	34,958
472,83	30,671
473,03	35,942
473,23	32,369
473,43	37,809
473,63	35,508
473,83	33,783
474,03	33,028
474,24	38,648
474,44	34,575
474,64	31,023
474,84	30,358
475,04	33,782
475,24	34,075
475,45	32,947
475,65	33,445
475,85	34,745
476,05	26,102
476,25	32,246
476,45	33,062
476,65	38,070
476,85	31,809
477,06	32,851
477,26	29,568
477,46	36,800
477,66	32,859
477,86	35,093
478,06	29,179
478,26	38,827
478,46	30,487
478,67	36,680
478,87	32,832
479,07	31,691
479,27	32,651
479,47	31,450
479,67	28,839
479,87	28,551
480,07	36,534
480,28	29,199
480,48	31,061
480,68	32,897
480,88	36,851
481,08	33,241
481,28	37,713
481,48	32,349
481,68	31,977
481,88	30,647
482,08	31,255
482,29	33,930
482,49	30,173
482,69	32,111
482,89	31,148
483,09	35,016
483,29	31,542
483,49	30,712
483,69	31,238
483,89	30,491
484,09	29,082
484,29	28,213
484,50	31,482
484,70	32,351
484,90	32,808
485,10	29,226
485,30	32,027
485,50	34,527
485,70	32,056
485,90	29,416
486,10	26,640
486,30	32,248
486,50	30,325
486,70	29,389
486,90	29,786
487,10	33,508
487,30	31,213
487,51	31,558
487,71	31,310
487,91	29,574
488,11	31,758
488,31	27,729
488,51	31,055
488,71	28,907
488,91	30,971
489,11	29,163
489,31	30,525
489,51	29,556
489,71	31,486
489,91	29,637
490,11	28,935
490,31	32,325
490,51	31,123
490,71	28,765
490,91	29,233
491,11	29,447
491,31	27,817
491,51	30,403
491,72	30,283
491,92	30,849
492,12	35,885
492,32	33,751
492,52	31,837
492,72	31,343
492,92	29,527
493,12	30,897
493,32	29,028
493,52	27,773
493,72	29,932
493,92	31,437
494,12	30,803
494,32	32,412
494,52	30,175
494,72	33,375
494,92	29,137
495,12	34,499
495,32	34,299
495,52	30,908
495,72	28,610
495,92	33,884
496,12	32,390
496,32	28,239
496,52	29,512
496,72	32,214
496,92	30,911
497,12	31,344
497,32	31,531
497,52	35,509
497,72	34,304
497,92	32,065
498,12	33,156
498,32	30,556
498,52	29,565
498,72	29,742
498,92	29,414
499,12	33,179
499,32	29,720
499,52	34,184
499,72	31,553
499,92	34,092
500,12	33,073
500,32	34,984
500,52	30,576
500,72	35,750
500,91	36,010
501,11	34,066
501,31	26,997
501,51	34,726
501,71	33,652
501,91	34,210
502,11	32,160
502,31	32,210
502,51	32,388
502,71	29,767
502,91	34,539
503,11	29,949
503,31	33,190
503,51	28,404
503,71	28,637
503,91	32,925
504,11	32,156
504,31	32,628
504,51	32,803
504,71	34,725
504,91	32,702
505,10	32,356
505,30	32,255
505,50	34,565
505,70	32,154
505,90	33,761
506,10	29,673
506,30	31,964
506,50	34,895
506,70	34,475
506,90	31,295
507,10	34,133
507,30	30,767
507,50	32,850
507,70	31,529
507,89	32,982
508,09	30,609
508,29	32,716
508,49	31,176
508,69	32,484
508,89	34,635
509,09	31,909
509,29	30,638
509,49	33,423
509,69	35,400
509,89	32,014
510,09	30,615
510,28	31,036
510,48	30,950
510,68	30,583
510,88	29,945
511,08	28,141
511,28	32,438
511,48	31,007
511,68	30,614
511,88	27,952
512,07	33,474
512,27	31,220
512,47	33,296
512,67	30,494
512,87	27,012
513,07	31,383
513,27	29,553
513,47	31,959
513,67	29,427
513,86	32,324
514,06	31,403
514,26	31,106
514,46	33,273
514,66	29,862
514,86	30,616
515,06	35,785
515,26	30,557
515,45	32,287
515,65	30,464
515,85	32,714
516,05	30,316
516,25	32,077
516,45	32,878
516,65	30,345
516,84	31,115
517,04	32,705
517,24	29,503
517,44	31,870
517,64	30,846
517,84	32,703
518,04	31,235
518,23	34,605
518,43	34,076
518,63	30,535
518,83	30,141
519,03	28,641
519,23	32,503
519,42	31,080
519,62	28,514
519,82	32,826
520,02	29,378
520,22	30,183
520,42	28,882
520,61	32,259
520,81	31,869
521,01	36,265
521,21	26,614
521,41	31,161
521,61	32,182
521,80	29,301
522,00	30,925
522,20	31,284
522,40	31,047
522,60	30,321
522,79	29,548
522,99	34,176
523,19	30,631
523,39	31,676
523,59	30,700
523,78	32,847
523,98	27,802
524,18	30,236
524,38	32,014
524,58	30,530
524,77	33,998
524,97	34,516
525,17	30,585
525,37	30,331
525,57	31,544
525,76	29,245
525,96	32,707
526,16	27,919
526,36	26,621
526,56	29,897
526,75	30,104
526,95	32,382
527,15	31,907
527,35	34,106
527,55	29,885
527,74	32,242
527,94	28,877
528,14	27,086
528,34	30,121
528,53	29,950
528,73	32,366
528,93	31,498
529,13	29,229
529,32	32,698
529,52	34,862
529,72	28,466
529,92	30,067
530,12	29,678
530,31	28,526
530,51	30,277
530,71	30,680
530,91	31,106
531,10	29,276
531,30	30,034
531,50	27,021
531,70	28,815
531,89	29,107
532,09	27,359
532,29	28,172
532,49	30,105
532,68	28,487
532,88	27,202
533,08	27,758
533,28	28,710
533,47	29,124
533,67	31,669
533,87	27,149
534,06	33,031
534,26	29,646
534,46	26,534
534,66	27,195
534,85	29,269
535,05	25,698
535,25	27,623
535,45	26,333
535,64	30,003
535,84	30,481
536,04	27,437
536,23	27,730
536,43	30,995
536,63	26,709
536,83	29,153
537,02	28,920
537,22	27,132
537,42	25,646
537,61	26,536
537,81	29,596
538,01	29,165
538,20	28,191
538,40	24,615
538,60	26,563
538,80	27,630
538,99	27,622
539,19	26,231
539,39	25,623
539,58	27,736
539,78	24,527
539,98	24,410
540,17	23,151
540,37	26,413
540,57	23,276
540,76	22,544
540,96	22,714
541,16	25,671
541,36	20,855
541,55	20,120
541,75	20,714
541,95	21,613
542,14	21,439
542,34	19,253
542,54	19,723
542,73	22,096
542,93	21,686
543,13	20,457
543,32	20,695
543,52	21,968
543,72	20,574
543,91	21,180
544,11	18,222
544,31	19,706
544,50	21,363
544,70	19,564
544,89	21,497
545,09	21,904
545,29	20,986
545,48	21,832
545,68	20,555
545,88	22,360
546,07	21,005
546,27	21,423
546,47	23,281
546,66	24,315
546,86	25,381
547,06	21,735
547,25	23,738
547,45	23,276
547,64	24,739
547,84	26,859
548,04	25,628
548,23	26,708
548,43	25,284
548,63	28,308
548,82	27,151
549,02	27,530
549,21	25,860
549,41	27,843
549,61	27,549
549,80	26,179
550,00	27,068
550,20	24,792
550,39	26,679
550,59	24,855
550,78	27,376
550,98	24,219
551,18	27,345
551,37	26,998
551,57	27,412
551,76	29,635
551,96	25,347
552,16	26,002
552,35	27,721
552,55	29,576
552,74	28,164
552,94	28,082
553,14	25,571
553,33	26,536
553,53	25,591
553,72	27,738
553,92	30,766
554,12	27,520
554,31	27,528
554,51	28,612
554,70	24,957
554,90	28,586
555,09	29,963
555,29	29,279
555,49	28,521
555,68	30,745
555,88	27,821
556,07	27,488
556,27	29,740
556,46	29,101
556,66	25,423
556,86	29,150
557,05	28,187
557,25	25,964
557,44	27,618
557,64	26,724
557,83	28,927
558,03	28,114
558,22	24,699
558,42	26,074
558,62	30,224
558,81	27,037
559,01	28,427
559,20	29,462
559,40	28,999
559,59	25,133
559,79	26,104
559,98	29,029
560,18	28,705
560,37	28,970
560,57	25,459
560,76	27,610
560,96	26,687
561,16	28,473
561,35	26,624
561,55	31,402
561,74	26,458
561,94	28,566
562,13	27,719
562,33	29,643
562,52	28,787
562,72	27,994
562,91	27,351
563,11	27,143
563,30	30,748
563,50	27,563
563,69	28,447
563,89	27,884
564,08	29,503
564,28	27,029
564,47	28,132
564,67	25,350
564,86	27,493
565,06	26,943
565,25	27,704
565,45	27,059
565,64	32,143
565,84	27,065
566,03	26,626
566,23	30,490
566,42	29,752
566,62	28,784
566,81	29,712
567,01	27,589
567,20	27,255
567,40	27,776
567,59	25,814
567,79	29,523
567,98	31,676
568,18	29,790
568,37	29,062
568,57	28,697
568,76	29,231
568,96	28,642
569,15	27,584
569,35	29,494
569,54	30,094
569,73	28,418
569,93	26,729
570,12	28,160
570,32	28,347
570,51	28,049
570,71	29,170
570,90	30,094
571,10	27,149
571,29	27,483
571,49	27,964
571,68	27,909
571,87	29,661
572,07	28,887
572,26	25,549
572,46	28,849
572,65	29,507
572,85	26,849
573,04	29,763
573,24	28,955
573,43	29,450
573,62	30,954
573,82	28,362
574,01	26,689
574,21	28,392
574,40	25,565
574,60	26,466
574,79	30,998
574,98	26,733
575,18	28,787
575,37	25,961
575,57	28,833
575,76	28,446
575,96	28,474
576,15	26,996
576,34	27,275
576,54	30,585
576,73	28,159
576,93	28,177
577,12	28,045
577,31	28,818
577,51	28,009
577,70	27,009
577,90	27,942
578,09	29,168
578,28	28,124
578,48	26,700
578,67	31,257
578,87	29,344
579,06	27,297
579,25	28,364
579,45	28,810
579,64	27,944
579,84	28,702
580,03	27,288
580,22	28,930
580,42	26,096
580,61	27,003
580,81	28,342
581,00	28,778
581,19	28,673
581,39	28,866
581,58	26,850
581,77	28,301
581,97	29,841
582,16	28,207
582,35	27,462
582,55	28,224
582,74	28,622
582,94	27,732
583,13	26,593
583,32	28,610
583,52	28,708
583,71	27,572
583,90	26,848
584,10	28,073
584,29	29,015
584,48	26,634
584,68	27,836
584,87	28,383
585,06	26,834
585,26	26,140
585,45	26,325
585,65	29,609
585,84	27,555
586,03	27,892
586,23	27,821
586,42	28,955
586,61	31,122
586,81	27,276
587,00	27,879
587,19	27,070
587,39	29,092
587,58	27,075
587,77	28,808
587,97	27,742
588,16	29,091
588,35	29,344
588,54	29,173
588,74	26,099
588,93	29,341
589,12	28,031
589,32	28,309
589,51	25,757
589,70	25,934
589,90	28,283
590,09	27,826
590,28	31,650
590,48	27,379
590,67	27,947
590,86	27,769
591,06	28,355
591,25	30,680
591,44	30,165
591,63	27,104
591,83	28,433
592,02	29,920
592,21	26,158
592,41	27,097
592,60	28,277
592,79	29,383
592,98	27,814
593,18	29,428
593,37	27,777
593,56	30,165
593,76	29,416
593,95	28,194
594,14	27,541
594,33	30,544
594,53	28,922
594,72	27,987
594,91	31,677
595,10	26,964
595,30	30,516
595,49	27,961
595,68	30,479
595,88	29,111
596,07	28,492
596,26	30,012
596,45	28,749
596,65	25,869
596,84	28,468
597,03	30,005
597,22	29,426
597,42	31,383
597,61	28,560
597,80	29,458
597,99	29,043
598,19	30,501
598,38	30,185
598,57	28,274
598,76	29,481
598,95	31,608
599,15	30,749
599,34	28,843
599,53	29,389
599,72	30,063
599,92	31,817
600,11	29,565
600,30	30,119
600,49	31,562
600,69	28,977
600,88	31,072
601,07	30,174
601,26	29,917
601,45	30,365
601,65	29,681
601,84	30,608
602,03	30,295
602,22	30,976
602,42	30,592
602,61	30,483
602,80	29,658
602,99	31,420
603,18	28,395
603,38	31,122
603,57	30,076
603,76	29,307
603,95	28,533
604,14	31,034
604,34	31,756
604,53	29,218
604,72	29,953
604,91	31,672
605,10	30,192
605,29	30,338
605,49	26,455
605,68	29,632
605,87	31,196
606,06	28,583
606,25	27,945
606,45	31,233
606,64	29,575
606,83	30,702
607,02	28,979
607,21	30,413
607,40	30,780
607,60	27,800
607,79	28,219
607,98	28,006
608,17	28,871
608,36	28,406
608,55	29,466
608,75	27,549
608,94	27,828
609,13	24,454
609,32	24,498
609,51	22,067
609,70	23,878
609,89	26,065
610,09	25,826
610,28	27,210
610,47	24,580
610,66	23,856
610,85	24,591
611,04	26,514
611,23	24,316
611,43	24,418
611,62	24,396
611,81	24,266
612,00	25,300
612,19	25,360
612,38	25,123
612,57	24,521
612,77	25,395
612,96	25,852
613,15	27,457
613,34	27,941
613,53	27,374
613,72	28,637
613,91	27,388
614,10	26,970
614,29	29,415
614,49	26,630
614,68	25,811
614,87	27,587
615,06	30,416
615,25	24,908
615,44	28,124
615,63	28,129
615,82	28,388
616,01	27,832
616,21	28,471
616,40	29,642
616,59	29,824
616,78	29,119
616,97	29,316
617,16	28,757
617,35	30,335
617,54	30,538
617,73	30,005
617,92	29,761
618,11	29,046
618,31	26,156
618,50	30,263
618,69	27,298
618,88	28,148
619,07	27,455
619,26	27,617
619,45	27,636
619,64	27,161
619,83	27,615
620,02	28,128
620,21	30,779
620,40	29,351
620,59	27,696
620,78	27,963
620,97	31,552
621,17	28,593
621,36	28,478
621,55	27,128
621,74	29,522
621,93	29,788
622,12	29,196
622,31	28,095
622,50	27,683
622,69	30,411
622,88	28,815
623,07	29,740
623,26	29,148
623,45	31,932
623,64	27,342
623,83	27,949
624,02	29,562
624,21	30,346
624,40	29,109
624,59	29,247
624,78	30,049
624,97	30,768
625,16	26,612
625,35	26,462
625,54	25,909
625,73	28,429
625,92	28,322
626,12	31,201
626,31	31,276
626,50	29,281
626,69	29,579
626,88	27,671
627,07	30,104
627,26	29,449
627,45	28,097
627,64	28,859
627,83	31,073
628,02	27,616
628,21	28,147
628,40	28,029
628,59	30,193
628,78	28,202
628,97	27,347
629,16	26,709
629,35	29,362
629,54	31,471
629,73	29,186
629,92	27,103
630,10	28,686
630,29	30,145
630,48	28,045
630,67	27,896
630,86	27,810
631,05	29,304
631,24	29,361
631,43	28,342
631,62	29,297
631,81	28,106
632,00	28,000
632,19	25,893
632,38	28,865
632,57	29,514
632,76	27,980
632,95	29,375
633,14	32,554
633,33	29,030
633,52	29,098
633,71	29,450
633,90	27,566
634,09	27,866
634,28	29,371
634,47	28,494
634,66	29,417
634,85	28,389
635,04	30,177
635,22	29,300
635,41	30,129
635,60	30,491
635,79	31,365
635,98	28,082
636,17	30,515
636,36	28,955
636,55	28,058
636,74	27,732
636,93	28,057
637,12	28,643
637,31	29,576
637,50	28,233
637,69	30,152
637,87	29,234
638,06	29,490
638,25	29,351
638,44	29,713
638,63	27,158
638,82	29,473
639,01	28,381
639,20	28,460
639,39	29,403
639,58	28,777
639,77	29,831
639,95	29,164
640,14	30,884
640,33	28,886
640,52	28,284
640,71	31,574
640,90	28,681
641,09	31,794
641,28	28,442
641,47	28,257
641,66	29,608
641,84	28,882
642,03	26,992
642,22	28,916
642,41	31,068
642,60	29,384
642,79	27,486
642,98	30,680
643,17	28,318
643,35	28,729
643,54	29,572
643,73	29,812
643,92	30,151
644,11	28,741
644,30	27,484
644,49	30,791
644,67	27,969
644,86	27,560
645,05	30,729
645,24	28,366
645,43	30,361
645,62	28,743
645,81	27,070
645,99	29,911
646,18	30,485
646,37	27,479
646,56	29,243
646,75	30,633
646,94	31,771
647,13	28,537
647,31	27,624
647,50	29,187
647,69	31,521
647,88	28,947
648,07	28,799
648,26	33,085
648,44	29,970
648,63	28,225
648,82	29,430
649,01	31,592
649,20	27,319
649,38	29,215
649,57	29,346
649,76	27,877
649,95	30,163
650,14	28,337
650,33	27,680
650,51	28,703
650,70	28,935
650,89	29,155
651,08	29,427
651,27	29,055
651,45	27,999
651,64	27,608
651,83	29,926
652,02	29,039
652,21	31,158
652,39	28,851
652,58	29,702
652,77	28,062
652,96	30,467
653,15	28,701
653,33	29,281
653,52	29,904
653,71	31,507
653,90	30,412
654,09	29,847
654,27	30,816
654,46	32,570
654,65	30,148
654,84	30,289
655,02	31,476
655,21	31,353
655,40	31,258
655,59	29,979
655,77	30,473
655,96	30,460
656,15	31,272
656,34	32,262
656,53	30,550
656,71	31,452
656,90	31,087
657,09	31,657
657,28	32,708
657,46	30,494
657,65	30,400
657,84	28,998
658,03	31,318
658,21	30,096
658,40	28,359
658,59	30,630
658,78	30,690
658,96	28,939
659,15	30,227
659,34	28,880
659,52	29,829
659,71	31,062
659,90	26,424
660,09	30,415
660,27	29,735
660,46	30,364
660,65	28,709
660,84	26,923
661,02	31,091
661,21	30,744
661,40	30,721
661,58	29,141
661,77	28,344
661,96	26,485
662,15	28,635
662,33	27,103
662,52	28,352
662,71	30,028
662,89	28,426
663,08	28,983
663,27	29,091
663,45	28,769
663,64	29,088
663,83	26,858
664,02	28,289
664,20	29,793
664,39	28,054
664,58	30,325
664,76	27,738
664,95	29,784
665,14	27,781
665,32	28,597
665,51	29,489
665,70	28,728
665,88	30,520
666,07	29,398
666,26	31,193
666,44	29,732
666,63	28,150
666,82	27,494
667,00	29,680
667,19	27,358
667,38	27,866
667,56	29,296
667,75	28,359
667,94	28,419
668,12	27,526
668,31	29,722
668,50	28,902
668,68	29,238
668,87	26,867
669,06	27,847
669,24	29,309
669,43	27,937
669,62	27,879
669,80	27,715
669,99	28,793
670,18	28,802
670,36	25,769
670,55	28,512
670,74	28,879
670,92	26,510
671,11	28,926
671,29	27,554
671,48	28,549
671,67	28,585
671,85	30,207
672,04	26,677
672,23	27,525
672,41	28,377
672,60	29,018
672,78	27,872
672,97	29,939
673,16	29,791
673,34	28,313
673,53	26,734
673,71	30,335
673,90	29,575
674,09	28,783
674,27	26,877
674,46	28,558
674,64	28,794
674,83	27,363
675,02	26,207
675,20	27,773
675,39	26,438
675,57	28,727
675,76	26,462
675,95	31,445
676,13	30,215
676,32	29,087
676,50	28,352
676,69	27,444
676,88	28,697
677,06	27,515
677,25	27,584
677,43	30,152
677,62	28,758
677,80	29,241
677,99	28,123
678,18	29,568
678,36	29,393
678,55	27,649
678,73	27,939
678,92	30,135
679,10	28,339
679,29	27,507
679,48	26,129
679,66	28,635
679,85	27,764
680,03	26,374
680,22	27,252
680,40	27,349
680,59	28,093
680,77	27,869
680,96	28,525
681,15	29,307
681,33	29,857
681,52	28,784
681,70	27,473
681,89	30,606
682,07	28,393
682,26	27,152
682,44	28,442
682,63	29,526
682,81	28,518
683,00	29,415
683,18	28,102
683,37	29,168
683,55	28,972
683,74	29,608
683,92	33,936
684,11	29,348
684,29	29,249
684,48	26,949
684,67	28,680
684,85	29,059
685,04	28,764
685,22	27,664
685,41	28,104
685,59	28,558
685,78	27,671
685,96	28,377
686,15	28,024
686,33	26,882
686,52	28,253
686,70	27,470
686,89	28,583
687,07	29,297
687,26	30,423
687,44	30,089
687,62	26,990
687,81	29,416
687,99	28,311
688,18	28,962
688,36	29,319
688,55	30,221
688,73	28,093
688,92	27,317
689,10	29,361
689,29	29,683
689,47	30,476
689,66	27,805
689,84	28,146
690,03	28,072
690,21	28,171
690,40	29,236
690,58	29,084
690,76	27,001
690,95	29,413
691,13	28,654
691,32	30,082
691,50	29,344
691,69	29,555
691,87	26,599
692,06	27,333
692,24	27,981
692,43	29,520
692,61	28,187
692,79	28,583
692,98	27,374
693,16	30,952
693,35	29,183
693,53	28,882
693,72	29,279
693,90	31,868
694,08	28,421
694,27	28,339
694,45	31,787
694,64	30,219
694,82	29,290
695,01	27,807
695,19	29,732
695,37	27,599
695,56	27,183
695,74	30,020
695,93	31,537
696,11	28,392
696,29	30,276
696,48	29,845
696,66	30,683
696,85	30,261
697,03	28,262
697,21	31,033
697,40	29,142
697,58	28,129
697,77	29,402
697,95	30,653
698,13	30,173
698,32	28,490
698,50	28,389
698,69	29,017
698,87	29,967
699,05	29,012
699,24	28,522
699,42	29,727
699,60	26,560
699,79	27,862
699,97	28,000
700,16	28,137
700,34	30,856
700,52	29,348
700,71	28,009
700,89	28,952
701,07	29,506
701,26	30,094
701,44	28,706
701,63	27,512
701,81	28,790
701,99	30,067
702,18	25,909
702,36	26,052
702,54	29,774
702,73	28,779
702,91	28,386
703,09	27,815
703,28	29,050
703,46	29,443
703,64	29,729
703,83	28,599
704,01	30,341
704,19	28,314
704,38	27,545
704,56	28,118
704,74	29,605
704,93	29,356
705,11	28,930
705,29	28,630
705,48	32,904
705,66	29,164
705,84	28,959
706,03	27,487
706,21	29,276
706,39	28,142
706,58	29,070
706,76	29,031
706,94	30,009
707,12	28,790
707,31	28,742
707,49	27,270
707,67	28,813
707,86	31,569
708,04	29,715
708,22	27,010
708,41	28,403
708,59	28,513
708,77	26,184
708,95	28,828
709,14	30,795
709,32	29,273
709,50	27,539
709,69	28,233
709,87	29,293
710,05	28,223
710,23	28,620
710,42	27,185
710,60	29,823
710,78	30,743
710,97	28,093
711,15	28,671
711,33	31,037
711,51	27,738
711,70	28,132
711,88	29,058
712,06	31,275
712,24	29,616
712,43	28,765
712,61	27,976
712,79	27,758
712,97	27,918
713,16	29,911
713,34	26,909
713,52	29,444
713,70	29,107
713,89	27,290
714,07	27,781
714,25	29,960
714,43	30,210
714,62	27,349
714,80	28,938
714,98	28,316
715,16	29,149
715,35	26,327
715,53	28,037
715,71	29,539
715,89	29,214
716,07	28,857
716,26	31,478
716,44	29,795
716,62	30,536
716,80	29,451
716,99	28,851
717,17	29,661
717,35	28,724
717,53	28,050
717,71	27,055
717,90	28,462
718,08	29,000
718,26	27,125
718,44	30,377
718,62	31,101
718,81	30,685
718,99	28,020
719,17	27,702
719,35	29,107
719,53	27,983
719,72	27,690
719,90	28,451
720,08	28,424
720,26	30,324
720,44	27,053
720,62	28,091
720,81	31,907
720,99	31,558
721,17	28,457
721,35	29,158
721,53	28,803
721,72	30,999
721,90	30,428
722,08	29,132
722,26	30,269
722,44	30,611
722,62	30,134
722,81	27,384
722,99	30,086
723,17	28,074
723,35	30,275
723,53	29,487
723,71	30,466
723,89	30,782
724,08	24,047
724,26	28,785
724,44	30,126
724,62	29,042
724,80	27,378
724,98	30,858
725,16	31,477
725,35	28,998
725,53	28,808
725,71	28,422
725,89	29,394
726,07	30,097
726,25	31,771
726,43	28,305
726,61	31,528
726,80	30,366
726,98	29,041
727,16	28,435
727,34	32,017
727,52	29,508
727,70	28,932
727,88	28,562
728,06	26,466
728,25	28,091
728,43	28,761
728,61	28,798
728,79	29,217
728,97	28,218
729,15	29,184
729,33	32,248
729,51	31,463
729,69	30,447
729,87	28,666
730,06	28,770
730,24	28,201
730,42	30,537
730,60	28,588
730,78	29,250
730,96	29,926
731,14	32,086
731,32	31,065
731,50	28,929
731,68	28,464
731,86	29,650
732,04	29,213
732,22	28,199
732,41	31,481
732,59	28,824
732,77	31,753
732,95	31,596
733,13	31,935
733,31	30,790
733,49	28,438
733,67	30,124
733,85	30,657
734,03	29,341
734,21	29,444
734,39	29,627
734,57	30,074
734,75	29,768
734,93	28,055
735,11	28,737
735,29	28,274
735,47	29,921
735,65	28,227
735,84	27,880
736,02	30,095
736,20	30,706
736,38	27,267
736,56	27,209
736,74	29,582
736,92	30,629
737,10	29,261
737,28	30,744
737,46	30,269
737,64	30,838
737,82	27,818
738,00	29,643
738,18	30,746
738,36	32,039
738,54	28,817
738,72	28,236
738,90	29,293
739,08	31,155
739,26	27,181
739,44	28,667
739,62	29,626
739,80	31,963
739,98	28,070
740,16	28,910
740,34	28,450
740,52	31,003
740,70	29,908
740,88	27,392
741,06	28,959
741,24	29,108
741,42	30,633
741,60	28,283
741,78	31,107
741,96	27,235
742,14	28,704
742,32	28,201
742,50	29,635
742,68	30,415
742,86	28,509
743,04	29,064
743,21	30,649
743,39	29,419
743,57	27,252
743,75	26,343
743,93	26,937
744,11	27,805
744,29	27,641
744,47	28,821
744,65	30,291
744,83	29,030
745,01	28,559
745,19	28,653
745,37	31,543
745,55	27,201
745,73	28,576
745,91	27,910
746,09	27,448
746,27	28,460
746,45	26,441
746,62	29,061
746,80	28,063
746,98	29,470
747,16	28,106
747,34	27,955
747,52	28,898
747,70	29,170
747,88	29,983
748,06	27,658
748,24	30,229
748,42	30,774
748,60	28,719
748,78	28,237
748,95	30,305
749,13	32,566
749,31	27,948
749,49	28,720
749,67	30,508
749,85	31,519
750,03	28,720
750,21	29,190
750,39	29,607
750,57	30,813
750,74	29,008
750,92	29,227
751,10	31,173
751,28	27,691
751,46	29,785
751,64	30,191
751,82	32,219
752,00	29,825
752,17	29,486
752,35	28,619
752,53	29,010
752,71	29,717
752,89	29,641
753,07	28,260
753,25	30,242
753,43	27,142
753,60	31,207
753,78	26,450
753,96	29,746
754,14	28,645
754,32	29,330
754,50	32,186
754,68	30,418
754,85	30,359
755,03	30,309
755,21	29,611
755,39	32,057
755,57	31,634
755,75	30,978
755,92	29,435
756,10	30,354
756,28	30,130
756,46	29,146
756,64	29,078
756,82	30,385
756,99	27,714
757,17	27,823
757,35	29,551
757,53	33,330
757,71	29,558
757,89	29,996
758,06	30,107
758,24	30,733
758,42	29,782
758,60	28,216
758,78	28,478
758,95	29,994
759,13	32,379
759,31	28,153
759,49	28,484
759,67	30,190
759,84	29,531
760,02	28,810
760,20	28,751
760,38	29,393
760,56	27,679
760,73	30,201
760,91	29,725
761,09	32,831
761,27	28,191
761,45	30,999
761,62	28,889
761,80	30,676
761,98	30,218
762,16	31,591
762,33	29,090
762,51	32,970
762,69	29,747
762,87	29,322
763,05	31,482
763,22	28,442
763,40	29,451
763,58	28,658
763,76	29,499
763,93	31,058
764,11	31,450
764,29	28,451
764,47	30,881
764,64	31,136
764,82	31,839
765,00	28,763
765,18	26,503
765,35	28,672
765,53	30,129
765,71	31,386
765,89	29,281
766,06	29,147
766,24	29,953
766,42	29,152
766,60	29,009
766,77	29,565
766,95	28,460
767,13	29,947
767,30	28,498
767,48	29,452
767,66	28,388
767,84	29,096
768,01	29,249
768,19	29,586
768,37	30,360
768,54	29,174
768,72	29,189
768,90	29,282
769,08	30,764
769,25	29,404
769,43	27,546
769,61	26,248
769,78	31,359
769,96	29,496
770,14	29,280
770,31	30,444
770,49	31,812
770,67	30,402
770,85	28,865
771,02	32,797
771,20	30,540
771,38	31,823
771,55	29,182
771,73	29,064
771,91	29,957
772,08	31,418
772,26	28,389
772,44	31,350
772,61	27,999
772,79	29,280
772,97	29,188
773,14	28,254
773,32	28,922
773,50	30,783
773,67	28,993
773,85	31,070
774,03	28,499
774,20	30,738
774,38	28,186
774,56	28,738
774,73	29,023
774,91	28,224
775,09	30,114
775,26	25,222
775,44	31,985
775,61	30,977
775,79	28,478
775,97	30,159
776,14	30,243
776,32	28,453
776,50	30,076
776,67	31,124
776,85	29,055
777,03	28,078
777,20	29,014
777,38	32,524
777,55	30,826
777,73	24,993
777,91	28,005
778,08	28,270
778,26	28,701
778,43	31,429
778,61	26,052
778,79	28,215
778,96	29,133
779,14	29,902
779,32	30,752
779,49	31,493
779,67	32,749
779,84	29,289
780,02	31,566
780,20	27,197
780,37	31,686
780,55	25,874
780,72	32,317
780,90	31,532
781,07	29,897
781,25	31,286
781,43	29,719
781,60	29,967
781,78	28,345
781,95	29,423
782,13	30,367
782,30	31,605
782,48	28,730
782,66	28,213
782,83	29,069
783,01	35,121
783,18	31,451
783,36	31,413
783,53	30,423
783,71	29,291
783,89	28,603
784,06	30,264
784,24	29,597
784,41	29,546
784,59	29,698
784,76	30,325
784,94	29,820
785,11	30,560
785,29	29,983
785,46	30,226
785,64	30,938
785,82	28,627
785,99	32,263
786,17	29,552
786,34	29,491
786,52	31,239
786,69	31,947
786,87	29,558
787,04	29,659
787,22	28,796
787,39	33,890
787,57	29,586
787,74	29,788
787,92	33,855
788,09	30,711
788,27	29,466
788,44	30,462
788,62	31,097
788,79	31,013
788,97	32,943
789,14	28,222
789,32	32,650
789,49	31,221
789,67	30,077
789,84	35,599
790,02	32,512
790,19	31,940
790,37	28,979
790,54	31,053
790,72	35,191
790,89	34,858
791,07	31,225
791,24	27,094
791,42	30,836
791,59	32,439
791,77	29,143
791,94	27,451
792,12	29,148
792,29	33,370
792,47	33,173
792,64	32,411
792,81	33,287
792,99	30,834
793,16	31,545
793,34	32,271
793,51	29,328
793,69	32,446
793,86	29,063
794,04	28,775
794,21	33,464
794,39	31,488
794,56	31,599
794,73	32,830
794,91	34,678
795,08	31,370
795,26	29,930
795,43	32,291
795,61	36,200
795,78	33,055
795,95	31,773
796,13	29,993
796,30	31,345
796,48	28,607
796,65	31,587
796,83	30,723
797,00	33,262
797,17	28,905
797,35	31,425
797,52	31,761
797,70	35,093
797,87	32,562
798,04	26,782
798,22	31,074
798,39	30,525
798,57	32,974
798,74	33,274
798,91	27,443
799,09	30,644
799,26	33,586
799,44	30,132
799,61	28,319
799,78	33,212
799,96	32,610
800,13	29,918
800,31	29,587
800,48	36,003
800,65	34,401
800,83	33,090
801,00	29,414
801,17	31,099
801,35	32,638
801,52	29,062
801,70	30,681
801,87	30,151
802,04	32,489
802,22	31,328
802,39	28,983
802,56	39,775
802,74	32,839
802,91	27,359
803,08	27,673
803,26	30,660
803,43	33,009
803,61	31,647
803,78	29,333
803,95	31,522
804,13	33,997
804,30	30,474
804,47	35,304
804,65	34,581
804,82	32,624
804,99	31,251
805,17	30,338
805,34	35,586
805,51	33,402
805,69	27,759
805,86	32,101
806,03	37,493
806,21	36,663
806,38	32,412
806,55	33,934
806,72	33,930
806,90	36,582
807,07	31,318
807,24	29,510
807,42	29,223
807,59	33,176
807,76	29,942
807,94	31,405
808,11	35,368
808,28	33,463
808,45	32,369
808,63	34,764
808,80	34,185
808,97	35,949
809,15	29,430
809,32	33,721
809,49	30,704
809,67	31,643
809,84	32,461
810,01	31,010
810,18	38,888
810,36	34,554
810,53	34,892
810,70	30,635
810,87	32,113
811,05	32,888
811,22	32,276
811,39	31,534
811,57	36,048
811,74	38,054
811,91	27,952
812,08	31,230
812,26	34,179
812,43	30,826
812,60	32,485
812,77	31,912
812,95	35,599
813,12	36,251
813,29	23,644
813,46	32,444
813,64	35,293
813,81	35,529
813,98	31,156
814,15	33,668
814,32	37,234
814,50	31,792
814,67	32,295
814,84	34,958
815,01	32,094
815,19	26,568
815,36	28,709
815,53	32,503
815,70	31,389
815,87	37,346
816,05	28,577
816,22	37,418
816,39	32,523
816,56	34,201
816,74	32,898
816,91	32,257
817,08	38,437
817,25	37,281
817,42	32,741
817,60	32,221
817,77	33,236
817,94	32,664
818,11	32,311
818,28	36,141
818,45	33,241
818,63	36,276
818,80	33,495
818,97	34,098
819,14	42,121
819,31	42,123
819,49	38,528
819,66	27,571
819,83	33,208
820,00	32,502
820,17	29,876
820,34	36,940
820,52	38,617
820,69	36,212
820,86	31,782
821,03	35,431
821,20	35,058
821,37	36,555
821,55	27,404
821,72	32,735
821,89	38,641
822,06	40,016
822,23	30,661
822,40	30,422
822,57	32,994
822,75	40,509
822,92	30,105
823,09	31,961
823,26	37,216
823,43	42,283
823,60	31,374
823,77	32,822
823,94	36,422
824,12	37,579
824,29	34,744
824,46	33,929
824,63	42,591
824,80	43,816
824,97	36,756
825,14	31,382
825,31	34,875
825,49	33,245
825,66	32,216
825,83	28,439
826,00	35,321
826,17	43,339
826,34	34,083
826,51	32,039
826,68	35,258
826,85	34,165
827,02	30,906
827,20	25,850
827,37	33,538
827,54	35,026
827,71	33,251
827,88	38,136
828,05	34,175
828,22	36,186
828,39	35,290
828,56	37,670
828,73	34,725
828,90	37,294
829,07	32,706
829,25	33,720
829,42	37,813
829,59	32,383
829,76	37,114
829,93	28,445
830,10	33,447
830,27	34,466
830,44	33,082
830,61	36,747
830,78	46,480
830,95	29,016
831,12	31,392
831,29	30,708
831,46	30,958
831,63	29,653
831,80	36,655
831,97	33,439
832,14	34,583
832,31	47,489
832,48	31,213
832,65	36,164
832,83	38,125
833,00	36,034
833,17	32,231
833,34	40,504
833,51	34,343
833,68	43,406
833,85	43,178
834,02	31,834
834,19	39,715
834,36	39,787
834,53	27,654
834,70	31,547
834,87	42,645
835,04	32,935
835,21	43,075
835,38	29,744
835,55	36,281
835,72	47,745
835,89	33,302
836,06	37,206
836,23	48,331
836,40	29,917
836,57	33,366
836,74	39,072
836,91	35,624
837,08	43,982
837,25	30,430
837,42	27,951
837,59	32,134
837,76	37,414
837,93	34,232
838,09	29,029
838,26	43,103
838,43	43,430
838,60	43,153
838,77	33,101
838,94	44,054
839,11	32,739
839,28	33,390
839,45	32,794
839,62	43,020
839,79	40,961
839,96	29,599
840,13	38,923
840,30	36,614
840,47	32,476
840,64	30,217
840,81	43,480
840,98	24,435
841,15	45,186
841,32	25,783
841,48	41,986
841,65	36,479
841,82	39,520
841,99	40,421
842,16	32,331
842,33	40,240
842,50	34,877
842,67	30,597
842,84	35,669
843,01	43,813
843,18	36,008
843,35	39,848
843,52	28,507
843,68	39,967
843,85	40,601
844,02	31,276
844,19	29,418
844,36	49,933
844,53	36,152
844,70	35,195
844,87	40,119
845,04	41,264
845,21	29,819
845,37	40,802
845,54	32,088
845,71	51,444
845,88	50,666
846,05	30,976
846,22	26,980
846,39	42,904
846,56	44,471
846,72	21,617
846,89	39,777
847,06	43,773
847,23	47,586
847,40	31,014
847,57	24,790
847,74	41,589
847,90	43,690
848,07	37,556
848,24	36,286
848,41	37,503
848,58	52,778
848,75	37,569
848,92	36,607
849,08	36,626
849,25	42,505
849,42	22,921
849,59	33,890
849,76	38,999
849,93	33,119
850,09	36,173
850,26	26,932
850,43	45,837
850,60	34,769
850,77	25,414
850,94	31,836
851,10	44,482
851,27	44,576
851,44	33,274
851,61	30,366
851,78	57,132
851,95	53,060
852,11	32,864
852,28	39,536
852,45	45,971
852,62	40,610
852,79	37,702
852,95	40,942
853,12	52,856
853,29	26,654
853,46	22,631
853,63	45,534
853,79	37,338
853,96	40,364
854,13	53,007
854,30	36,755
854,46	63,509
854,63	40,101
854,80	35,431
854,97	39,594
855,14	62,861
855,30	44,316
855,47	25,968
855,64	41,167
855,81	40,298
855,97	51,944
856,14	42,544
856,31	21,228
856,48	49,114
856,65	52,968
856,81	32,325
856,98	28,803
857,15	31,469
857,32	47,714
857,48	18,294
857,65	42,704
857,82	48,462
857,99	48,804
858,15	39,384
858,32	38,567
858,49	53,958
858,65	53,659
858,82	36,561
858,99	35,055
859,16	40,796
859,32	50,354
859,49	40,172
859,66	40,533
859,83	50,147
859,99	31,657
860,16	52,173
860,33	40,239
860,49	38,604
860,66	49,902
860,83	50,138
861,00	31,169
861,16	62,814
861,33	53,268
861,50	33,052
861,66	51,931
861,83	49,793
862,00	39,573
862,16	38,227
862,33	33,408
862,50	67,943
862,67	45,302
862,83	28,898
863,00	49,586
863,17	69,463
863,33	58,385
863,50	23,402
863,67	37,896
863,83	36,432
864,00	63,593
864,17	33,941
864,33	37,027
864,50	61,669
864,67	49,948
864,83	36,538
865,00	32,109
865,17	35,759
865,33	74,011
865,50	29,119
865,67	32,373
865,83	47,732
866,00	83,240
866,17	45,975
866,33	60,934
866,50	61,765
866,66	62,356
866,83	33,630
867,00	54,432
867,16	66,827
867,33	65,513
867,50	12,814
867,66	45,832
867,83	74,091
868,00	66,997
868,16	44,643
868,33	32,568
868,49	50,820
868,66	52,040
868,83	41,060
868,99	47,935
869,16	76,100
869,32	54,104
869,49	48,756
869,66	32,927
869,82	77,835
869,99	96,388
870,15	25,755
870,32	57,875
870,49	71,237
870,65	68,765
870,82	71,094
870,98	55,287
871,15	81,800
871,32	37,912
871,48	28,321
871,65	36,797
871,81	67,603
871,98	50,243
872,15	21,361
872,31	34,194
872,48	88,137
872,64	69,341
872,81	20,078
872,97	71,226
873,14	68,801
873,31	62,581
873,47	58,524
873,64	44,965
873,80	92,397
873,97	103,948
874,13	35,361
874,30	46,529
874,46	83,570
874,63	64,882
874,80	22,690
874,96	19,977
875,13	88,228
875,29	35,384
875,46	81,235
875,62	16,486
875,79	76,443
875,95	45,019
876,12	40,396
876,28	16,120
876,45	99,768
876,61	74,802
876,78	52,836
876,94	22,461
877,11	65,124
877,27	74,844
877,44	51,246
877,60	58,336
877,77	103,343
877,94	109,982
878,10	57,922
878,27	85,456
878,43	138,938
878,60	44,459
878,76	61,010
878,93	40,126
879,09	134,155
879,26	73,775
879,42	80,635
879,58	25,545
879,75	74,598
879,91	105,107
880,08	-7,432
880,24	35,674
880,41	80,394
880,57	84,544
880,74	28,299
880,90	69,441
881,07	52,679
881,23	89,676
881,40	64,582
881,56	63,070
881,73	122,711
881,89	79,838
882,06	24,273
882,22	143,806
882,38	141,112
882,55	125,470
882,71	99,575
882,88	65,344
883,04	101,236
883,21	209,670
883,37	41,596
883,54	32,161
883,70	195,144
883,86	84,208
884,03	46,865
884,19	50,354
884,36	69,200
884,52	191,512
884,69	97,480
884,85	61,608
885,01	107,775
885,18	141,282
885,34	86,767
885,51	5,689
885,67	95,731
>>>>> Data<<<<< Espectral Procesado Extremo
