Fichero De Datos De SpectraSuite
++++++++++++++++++++++++++++++++++++
Fecha: Wed Apr 22 10:58:13 CEST 2009
Usuario: evoflor
Presente Oscuro Del Espectro: Sí
La Referencia de Presente Del Espectro De: Sí
Muestreados de los componentes de Número de espectros: 1
Espectrómetros: USB4F02353
Tiempo de integración (usec): 500000 (USB4F02353)
Promedio de Espectros Hechos un: 5 (USB4F02353)
El Alisar Del Furgón: 0 (USB4F02353)
Párrafo de de Corregir del la del del de Eléctrica del obscuridad: Sí (USB4F02353)
Estrobo/Lámpara Permitido: No (USB4F02353)
Correct for Detector Non-linearity: No (USB4F02353)
Párrafo de de Corregir del la del del de Externa del luz: No (USB4F02353)
Procesado del espectro de Número de pixeles en: 3648
>>>>> Comienza Data<<<<< Espectral Procesado Del EL
177,79	163,491
178,00	163,491
178,22	163,491
178,44	595,824
178,66	-88,912
178,88	68,143
179,09	-71,830
179,31	218,748
179,53	528,731
179,75	368,012
179,96	440,345
180,18	-123,938
180,40	308,854
180,62	620,106
180,83	36,281
181,05	-1424,146
181,27	-33980,000
181,49	217,652
181,70	116,846
181,92	368,934
182,14	384,277
182,36	-1,300
182,58	362,200
182,79	577,589
183,01	7,935
183,23	157,240
183,45	-112,862
183,66	64,690
183,88	369,294
184,10	-2172,364
184,32	213,317
184,53	210,376
184,75	-128,408
184,97	15,382
185,18	-53,722
185,40	-470,577
185,62	80,592
185,84	266,769
186,05	141,304
186,27	-54,106
186,49	5045,385
186,71	16,820
186,92	63,942
187,14	-109,914
187,36	45,878
187,58	42,118
187,79	23,587
188,01	177,713
188,23	-221,818
188,45	123,344
188,66	292,321
188,88	-1714,182
189,10	-231,800
189,31	115,563
189,53	-20,109
189,75	296,091
189,97	262,231
190,18	153,562
190,40	522,824
190,62	-40,252
190,83	-24,086
191,05	195,676
191,27	284,800
191,49	304,653
191,70	-219,615
191,92	-1012,542
192,14	-18,988
192,35	452,997
192,57	585,143
192,79	-119,957
193,01	231,125
193,22	100,768
193,44	-67,201
193,66	89,378
193,87	16,874
194,09	-33,058
194,31	50,864
194,53	451,608
194,74	143,355
194,96	56,113
195,18	89,516
195,39	-303,377
195,61	-91,450
195,83	-189,304
196,04	120,293
196,26	-464,724
196,48	-62,569
196,70	92,604
196,91	30,151
197,13	170,329
197,35	63,373
197,56	372,693
197,78	1670,746
198,00	608,951
198,21	536,311
198,43	-605,698
198,65	138,182
198,86	426,547
199,08	199,934
199,30	105,223
199,51	-151,726
199,73	135,777
199,95	220,000
200,16	476,846
200,38	255,459
200,60	80,571
200,81	356,060
201,03	45,870
201,25	-1563,800
201,46	135,883
201,68	153,327
201,90	4699,545
202,11	-112,519
202,33	48,079
202,55	-239,000
202,76	-34,760
202,98	322,230
203,20	117,885
203,41	-178,842
203,63	93,067
203,85	-92480,000
204,06	-17,216
204,28	-10,313
204,50	96,371
204,71	230,177
204,93	-282,560
205,15	12,892
205,36	-77,017
205,58	227,601
205,80	-17,317
206,01	109,830
206,23	63,060
206,45	118,869
206,66	104,349
206,88	-16,269
207,10	154,955
207,31	340,636
207,53	-10,914
207,75	98,780
207,96	340,896
208,18	-179,317
208,39	109,151
208,61	1922,286
208,83	-199,315
209,04	51,563
209,26	21,751
209,48	416,461
209,69	153,516
209,91	348,919
210,13	29,192
210,34	21,259
210,56	149,170
210,77	-869,921
210,99	83,793
211,21	6392,941
211,42	-142,891
211,64	-21,864
211,86	111,588
212,07	237,688
212,29	221,489
212,50	62,695
212,72	47,615
212,94	177,128
213,15	90,375
213,37	101,483
213,58	-91,308
213,80	-2499,286
214,02	5969,412
214,23	290,292
214,45	353,377
214,67	342,927
214,88	-243,893
215,10	-251,549
215,31	84,017
215,53	-113,000
215,75	173,357
215,96	1016,025
216,18	-345,352
216,39	154,910
216,61	345,371
216,83	232,054
217,04	1089,663
217,26	-46,806
217,47	156,064
217,69	191,969
217,91	114,227
218,12	-72680,000
218,34	156,628
218,55	28,064
218,77	70,873
218,99	137,756
219,20	-69,492
219,42	341,280
219,63	-30,235
219,85	-135,756
220,06	75,308
220,28	132,121
220,50	46,372
220,71	93,006
220,93	2203,396
221,14	-996,800
221,36	43,442
221,58	90,400
221,79	143,293
222,01	479,138
222,22	726,842
222,44	-214,831
222,65	83,348
222,87	1099,860
223,09	130,994
223,30	42,815
223,52	55,980
223,73	103,501
223,95	-54,817
224,16	144,289
224,38	234,076
224,60	131,400
224,81	14,107
225,03	87,974
225,24	159,122
225,46	90,831
225,67	-40,062
225,89	31,518
226,10	354,458
226,32	754,240
226,54	-11,218
226,75	16,261
226,97	55,935
227,18	108,134
227,40	59,877
227,61	24,742
227,83	36,298
228,04	62,556
228,26	63,258
228,47	38,397
228,69	92,237
228,91	116,862
229,12	100,560
229,34	31,339
229,55	47,988
229,77	7,925
229,98	12,024
230,20	40,115
230,41	38,570
230,63	77,812
230,84	-43,356
231,06	36,464
231,27	1,013
231,49	62,830
231,71	25,889
231,92	22,682
232,14	35,272
232,35	58,849
232,57	-5,277
232,78	24,114
233,00	37,833
233,21	25,009
233,43	1,169
233,64	22,389
233,86	21,521
234,07	13,217
234,29	12,977
234,50	9,759
234,72	39,817
234,93	-10,730
235,15	30,397
235,36	11,054
235,58	-1,222
235,79	28,189
236,01	11,538
236,22	-2,116
236,44	47,086
236,65	29,146
236,87	16,187
237,08	5,109
237,30	11,109
237,51	4,572
237,73	1,060
237,94	9,448
238,16	15,241
238,37	3,363
238,59	8,436
238,80	10,047
239,02	3,398
239,23	20,898
239,45	-9,555
239,66	16,626
239,88	16,514
240,09	21,226
240,31	4,564
240,52	6,012
240,74	13,489
240,95	5,205
241,17	10,018
241,38	8,270
241,60	5,670
241,81	12,764
242,03	9,617
242,24	7,791
242,46	7,640
242,67	7,752
242,89	2,815
243,10	13,699
243,32	12,977
243,53	3,890
243,75	4,170
243,96	2,582
244,18	5,077
244,39	5,558
244,60	11,749
244,82	0,735
245,03	9,030
245,25	8,779
245,46	14,016
245,68	3,121
245,89	11,910
246,11	5,222
246,32	4,557
246,54	5,395
246,75	5,125
246,97	5,951
247,18	13,295
247,39	4,660
247,61	4,635
247,82	4,299
248,04	3,655
248,25	1,677
248,47	11,968
248,68	4,412
248,90	5,571
249,11	9,544
249,33	8,515
249,54	2,833
249,75	8,291
249,97	1,793
250,18	8,911
250,40	13,166
250,61	-3,898
250,83	6,345
251,04	-4,337
251,25	10,456
251,47	-2,477
251,68	9,270
251,90	6,135
252,11	9,566
252,33	6,251
252,54	2,984
252,76	5,980
252,97	-0,250
253,18	-0,109
253,40	5,110
253,61	0,416
253,83	9,873
254,04	4,461
254,25	3,426
254,47	4,590
254,68	3,520
254,90	0,477
255,11	3,451
255,33	2,729
255,54	-0,199
255,75	1,689
255,97	-0,144
256,18	4,657
256,40	4,269
256,61	6,041
256,82	1,180
257,04	10,093
257,25	-0,481
257,47	1,471
257,68	2,849
257,89	4,896
258,11	2,347
258,32	2,749
258,54	6,651
258,75	5,887
258,96	2,459
259,18	2,022
259,39	-0,440
259,61	2,036
259,82	5,161
260,03	4,985
260,25	2,742
260,46	0,664
260,68	1,950
260,89	3,630
261,10	3,067
261,32	4,869
261,53	2,996
261,75	7,022
261,96	-3,628
262,17	10,127
262,39	10,987
262,60	0,885
262,81	0,945
263,03	6,363
263,24	4,199
263,46	-0,256
263,67	4,122
263,88	2,933
264,10	5,035
264,31	-1,462
264,52	4,836
264,74	6,367
264,95	1,546
265,17	6,549
265,38	2,376
265,59	4,400
265,81	7,541
266,02	2,181
266,23	1,755
266,45	7,891
266,66	8,206
266,87	6,754
267,09	1,064
267,30	3,906
267,52	3,576
267,73	3,167
267,94	7,129
268,16	5,551
268,37	3,618
268,58	1,846
268,80	4,913
269,01	1,789
269,22	4,307
269,44	2,209
269,65	3,362
269,86	-1,378
270,08	4,234
270,29	3,435
270,50	6,012
270,72	3,902
270,93	2,826
271,14	-1,287
271,36	0,321
271,57	3,045
271,78	2,066
272,00	4,956
272,21	6,207
272,42	3,586
272,64	4,295
272,85	-0,192
273,06	3,431
273,28	8,039
273,49	5,445
273,70	3,285
273,92	3,471
274,13	4,832
274,34	3,026
274,56	2,457
274,77	0,525
274,98	3,538
275,20	4,020
275,41	5,563
275,62	4,406
275,84	1,676
276,05	8,251
276,26	0,203
276,47	2,113
276,69	3,952
276,90	5,337
277,11	0,965
277,33	1,483
277,54	3,403
277,75	3,805
277,97	0,918
278,18	2,727
278,39	4,524
278,61	1,947
278,82	3,367
279,03	2,947
279,24	4,099
279,46	4,547
279,67	5,668
279,88	1,607
280,10	4,981
280,31	1,255
280,52	4,417
280,73	1,277
280,95	3,511
281,16	5,202
281,37	3,281
281,59	8,751
281,80	6,626
282,01	3,676
282,22	2,360
282,44	-0,577
282,65	6,387
282,86	7,543
283,08	1,270
283,29	2,969
283,50	3,155
283,71	4,363
283,93	4,395
284,14	8,259
284,35	1,127
284,56	3,881
284,78	1,766
284,99	5,786
285,20	5,297
285,42	5,796
285,63	2,628
285,84	1,285
286,05	1,392
286,27	2,969
286,48	-1,167
286,69	1,484
286,90	3,160
287,12	2,229
287,33	0,474
287,54	3,290
287,75	3,092
287,97	2,954
288,18	1,190
288,39	2,135
288,60	2,083
288,82	3,686
289,03	1,686
289,24	2,526
289,45	4,771
289,67	2,186
289,88	1,640
290,09	4,217
290,30	4,544
290,52	1,131
290,73	2,066
290,94	0,708
291,15	4,572
291,37	4,407
291,58	3,256
291,79	4,237
292,00	3,697
292,21	3,818
292,43	2,182
292,64	2,165
292,85	1,493
293,06	2,982
293,28	1,387
293,49	0,970
293,70	4,298
293,91	5,783
294,12	3,067
294,34	3,677
294,55	1,719
294,76	3,416
294,97	3,874
295,19	0,154
295,40	4,451
295,61	3,988
295,82	2,571
296,03	3,081
296,25	2,214
296,46	1,093
296,67	1,909
296,88	-0,943
297,09	6,997
297,31	1,238
297,52	4,311
297,73	2,547
297,94	4,729
298,15	2,653
298,37	2,081
298,58	4,376
298,79	5,618
299,00	0,952
299,21	2,592
299,43	2,207
299,64	5,656
299,85	2,590
300,06	1,103
300,27	0,019
300,49	5,898
300,70	2,764
300,91	4,504
301,12	3,126
301,33	4,097
301,54	2,402
301,76	4,021
301,97	2,206
302,18	0,790
302,39	5,424
302,60	4,374
302,82	3,064
303,03	4,885
303,24	3,150
303,45	3,287
303,66	2,239
303,87	3,102
304,09	4,443
304,30	2,035
304,51	1,411
304,72	3,035
304,93	3,476
305,14	2,687
305,36	0,262
305,57	0,407
305,78	6,099
305,99	1,099
306,20	1,555
306,41	1,141
306,62	0,143
306,84	1,634
307,05	1,634
307,26	3,356
307,47	6,132
307,68	1,719
307,89	1,484
308,11	4,880
308,32	2,804
308,53	-0,077
308,74	0,486
308,95	3,137
309,16	2,381
309,37	5,154
309,59	0,465
309,80	2,270
310,01	0,308
310,22	4,208
310,43	0,536
310,64	3,289
310,85	3,352
311,06	2,269
311,28	3,091
311,49	3,238
311,70	6,087
311,91	0,980
312,12	2,292
312,33	5,157
312,54	4,218
312,75	-0,320
312,97	0,983
313,18	2,947
313,39	1,820
313,60	2,393
313,81	3,363
314,02	2,957
314,23	5,489
314,44	1,681
314,65	2,895
314,87	0,972
315,08	1,428
315,29	7,470
315,50	3,332
315,71	3,928
315,92	6,541
316,13	4,858
316,34	1,708
316,55	5,199
316,77	0,271
316,98	1,907
317,19	0,477
317,40	5,109
317,61	6,818
317,82	2,702
318,03	-0,834
318,24	1,472
318,45	4,061
318,66	4,247
318,87	0,238
319,09	3,568
319,30	3,566
319,51	4,270
319,72	5,913
319,93	3,460
320,14	5,433
320,35	3,557
320,56	0,441
320,77	3,616
320,98	6,684
321,19	6,041
321,40	1,960
321,62	6,603
321,83	3,696
322,04	5,502
322,25	1,792
322,46	8,128
322,67	4,970
322,88	4,630
323,09	2,253
323,30	3,536
323,51	3,418
323,72	4,960
323,93	1,345
324,14	2,916
324,35	0,121
324,56	0,954
324,77	0,361
324,99	1,341
325,20	0,272
325,41	2,438
325,62	3,333
325,83	0,930
326,04	-0,125
326,25	4,254
326,46	1,710
326,67	2,924
326,88	1,702
327,09	1,048
327,30	2,961
327,51	4,217
327,72	4,690
327,93	4,644
328,14	-5,872
328,35	4,328
328,56	5,247
328,77	3,112
328,98	4,150
329,19	3,616
329,40	6,329
329,61	2,363
329,82	1,930
330,04	2,656
330,25	-0,006
330,46	1,206
330,67	2,917
330,88	1,846
331,09	4,600
331,30	1,479
331,51	3,990
331,72	2,193
331,93	3,556
332,14	1,279
332,35	4,699
332,56	3,321
332,77	4,595
332,98	0,230
333,19	2,254
333,40	2,215
333,61	3,782
333,82	2,931
334,03	3,383
334,24	2,847
334,45	4,927
334,66	4,963
334,87	3,467
335,08	2,458
335,29	0,630
335,50	-0,542
335,71	2,039
335,92	3,856
336,13	6,488
336,34	1,148
336,55	5,641
336,76	4,955
336,97	2,728
337,18	-0,033
337,39	2,162
337,60	1,736
337,81	1,950
338,02	1,499
338,23	2,701
338,44	3,014
338,65	2,338
338,86	4,228
339,07	1,511
339,28	5,546
339,49	3,404
339,70	0,077
339,91	2,368
340,11	7,380
340,32	-0,197
340,53	0,422
340,74	2,641
340,95	1,906
341,16	4,171
341,37	1,325
341,58	0,408
341,79	3,372
342,00	2,219
342,21	2,879
342,42	0,701
342,63	2,446
342,84	2,059
343,05	4,549
343,26	4,636
343,47	0,755
343,68	-0,656
343,89	4,599
344,10	4,311
344,31	5,028
344,52	4,506
344,73	2,321
344,94	4,376
345,14	3,026
345,35	4,568
345,56	2,701
345,77	1,845
345,98	2,545
346,19	4,152
346,40	2,628
346,61	0,857
346,82	1,936
347,03	-0,119
347,24	4,592
347,45	3,382
347,66	7,843
347,87	2,346
348,08	1,918
348,28	-0,577
348,49	6,044
348,70	6,240
348,91	4,199
349,12	-1,148
349,33	13,177
349,54	0,590
349,75	5,461
349,96	3,352
350,17	6,311
350,38	2,624
350,59	4,976
350,80	4,056
351,00	4,601
351,21	5,707
351,42	2,919
351,63	-3,106
351,84	4,322
352,05	3,049
352,26	0,750
352,47	4,081
352,68	1,075
352,89	1,797
353,09	6,310
353,30	-1,362
353,51	2,120
353,72	7,136
353,93	3,821
354,14	-0,254
354,35	2,276
354,56	4,399
354,77	3,593
354,98	0,950
355,18	3,167
355,39	6,567
355,60	2,158
355,81	3,102
356,02	5,047
356,23	2,282
356,44	5,210
356,65	4,000
356,85	5,461
357,06	6,455
357,27	5,758
357,48	2,362
357,69	4,060
357,90	2,390
358,11	0,980
358,32	1,067
358,52	4,660
358,73	2,445
358,94	-1,922
359,15	4,536
359,36	5,338
359,57	3,573
359,78	5,562
359,98	2,124
360,19	-0,700
360,40	5,575
360,61	6,604
360,82	-0,405
361,03	6,733
361,24	2,951
361,44	1,293
361,65	2,354
361,86	1,006
362,07	4,358
362,28	2,285
362,49	0,236
362,70	2,718
362,90	3,541
363,11	1,446
363,32	0,979
363,53	6,885
363,74	2,537
363,95	6,675
364,15	3,558
364,36	5,312
364,57	4,596
364,78	1,419
364,99	6,205
365,20	5,919
365,40	4,025
365,61	-0,325
365,82	7,500
366,03	3,149
366,24	3,203
366,45	1,327
366,65	2,081
366,86	1,607
367,07	5,742
367,28	4,069
367,49	3,526
367,69	7,439
367,90	4,331
368,11	5,980
368,32	1,471
368,53	6,620
368,73	5,270
368,94	5,423
369,15	3,133
369,36	4,903
369,57	4,582
369,78	2,053
369,98	5,659
370,19	7,728
370,40	4,498
370,61	3,722
370,82	6,133
371,02	2,385
371,23	8,189
371,44	4,096
371,65	5,519
371,85	6,136
372,06	2,711
372,27	3,964
372,48	5,107
372,69	0,524
372,89	-0,399
373,10	0,186
373,31	2,775
373,52	3,284
373,73	7,332
373,93	4,605
374,14	2,999
374,35	7,777
374,56	8,146
374,76	2,605
374,97	2,371
375,18	3,984
375,39	4,881
375,60	4,404
375,80	2,604
376,01	4,306
376,22	3,768
376,43	3,001
376,63	4,798
376,84	1,430
377,05	5,150
377,26	3,286
377,46	1,315
377,67	4,611
377,88	4,959
378,09	4,103
378,29	1,846
378,50	5,153
378,71	5,210
378,92	2,256
379,12	3,365
379,33	2,489
379,54	3,261
379,75	5,701
379,95	4,590
380,16	4,892
380,37	6,691
380,58	3,552
380,78	7,436
380,99	3,198
381,20	6,822
381,41	2,981
381,61	5,799
381,82	3,908
382,03	3,392
382,24	5,023
382,44	4,554
382,65	6,026
382,86	4,997
383,06	3,406
383,27	5,604
383,48	3,943
383,69	7,777
383,89	6,046
384,10	6,380
384,31	4,499
384,51	6,481
384,72	5,890
384,93	6,766
385,14	4,117
385,34	10,259
385,55	5,557
385,76	3,932
385,96	6,487
386,17	6,527
386,38	9,662
386,59	7,156
386,79	6,355
387,00	6,718
387,21	6,768
387,41	7,102
387,62	6,498
387,83	11,804
388,03	5,417
388,24	1,424
388,45	7,314
388,66	7,793
388,86	10,764
389,07	4,899
389,28	13,816
389,48	5,004
389,69	6,822
389,90	6,056
390,10	10,273
390,31	10,842
390,52	2,680
390,72	8,116
390,93	8,842
391,14	7,617
391,34	10,595
391,55	9,971
391,76	11,703
391,96	8,211
392,17	9,168
392,38	12,336
392,58	7,757
392,79	5,272
393,00	7,602
393,20	7,424
393,41	6,045
393,62	9,295
393,82	9,119
394,03	9,338
394,24	10,551
394,44	12,090
394,65	10,019
394,86	9,338
395,06	11,994
395,27	5,682
395,48	11,291
395,68	12,589
395,89	12,429
396,10	11,432
396,30	9,334
396,51	7,692
396,72	13,438
396,92	8,022
397,13	10,155
397,34	7,787
397,54	13,581
397,75	8,264
397,95	6,218
398,16	10,913
398,37	10,178
398,57	12,501
398,78	15,326
398,99	13,138
399,19	11,202
399,40	13,496
399,60	10,196
399,81	11,965
400,02	12,357
400,22	16,346
400,43	10,052
400,64	14,506
400,84	10,087
401,05	12,785
401,25	16,482
401,46	13,794
401,67	13,647
401,87	12,737
402,08	10,294
402,29	10,414
402,49	12,990
402,70	14,469
402,90	12,070
403,11	13,010
403,32	13,787
403,52	11,645
403,73	15,517
403,93	16,880
404,14	18,789
404,35	14,717
404,55	14,149
404,76	13,666
404,96	17,760
405,17	16,670
405,38	17,154
405,58	13,854
405,79	18,697
405,99	13,297
406,20	16,106
406,40	12,593
406,61	16,832
406,82	15,496
407,02	20,815
407,23	19,010
407,43	16,301
407,64	15,296
407,85	16,329
408,05	11,864
408,26	25,441
408,46	20,980
408,67	14,529
408,87	16,100
409,08	14,927
409,29	18,305
409,49	19,824
409,70	21,786
409,90	18,383
410,11	16,700
410,31	18,507
410,52	20,013
410,72	18,207
410,93	21,406
411,14	15,881
411,34	16,987
411,55	21,530
411,75	20,134
411,96	21,156
412,16	19,644
412,37	20,855
412,57	21,936
412,78	19,035
412,99	16,389
413,19	18,967
413,40	21,539
413,60	17,969
413,81	19,322
414,01	19,112
414,22	19,218
414,42	16,121
414,63	17,243
414,83	22,324
415,04	24,975
415,24	18,624
415,45	20,247
415,65	23,029
415,86	21,841
416,07	19,985
416,27	20,514
416,48	24,245
416,68	23,077
416,89	18,907
417,09	22,906
417,30	24,859
417,50	23,094
417,71	24,956
417,91	24,717
418,12	19,917
418,32	22,049
418,53	22,400
418,73	20,583
418,94	22,222
419,14	22,211
419,35	19,027
419,55	22,544
419,76	22,112
419,96	20,304
420,17	23,733
420,37	18,567
420,58	23,330
420,78	24,255
420,99	26,581
421,19	28,131
421,40	20,836
421,60	26,683
421,81	23,893
422,01	21,843
422,22	24,078
422,42	23,839
422,63	24,774
422,83	20,599
423,04	25,544
423,24	25,318
423,45	23,362
423,65	25,726
423,86	25,073
424,06	25,359
424,27	20,051
424,47	17,143
424,67	21,988
424,88	22,899
425,08	25,231
425,29	26,840
425,49	24,740
425,70	19,289
425,90	29,000
426,11	25,850
426,31	23,307
426,52	24,071
426,72	19,947
426,93	21,228
427,13	23,998
427,33	24,399
427,54	25,491
427,74	24,561
427,95	26,403
428,15	21,775
428,36	24,161
428,56	23,762
428,77	25,871
428,97	24,021
429,18	24,065
429,38	24,186
429,58	24,950
429,79	25,103
429,99	25,226
430,20	16,498
430,40	26,115
430,61	24,156
430,81	21,122
431,01	24,881
431,22	26,531
431,42	26,540
431,63	21,586
431,83	23,374
432,04	21,653
432,24	27,169
432,44	24,489
432,65	23,787
432,85	22,915
433,06	24,424
433,26	24,229
433,47	19,551
433,67	23,979
433,87	22,952
434,08	17,930
434,28	21,770
434,49	23,764
434,69	24,781
434,89	17,807
435,10	22,057
435,30	24,555
435,51	20,391
435,71	24,985
435,91	22,768
436,12	21,520
436,32	22,226
436,53	22,858
436,73	23,342
436,93	24,091
437,14	23,774
437,34	24,768
437,55	27,934
437,75	24,866
437,95	24,020
438,16	23,639
438,36	23,129
438,57	22,405
438,77	21,605
438,97	27,552
439,18	29,757
439,38	24,612
439,58	22,890
439,79	23,887
439,99	20,858
440,20	25,404
440,40	26,074
440,60	26,377
440,81	24,909
441,01	20,938
441,21	26,321
441,42	27,222
441,62	27,638
441,83	25,866
442,03	23,852
442,23	27,101
442,44	26,020
442,64	22,936
442,84	20,445
443,05	24,744
443,25	22,996
443,45	25,768
443,66	23,744
443,86	20,999
444,06	25,074
444,27	22,723
444,47	25,293
444,67	23,470
444,88	28,028
445,08	26,510
445,28	25,729
445,49	22,683
445,69	21,458
445,90	26,079
446,10	24,746
446,30	26,538
446,51	26,033
446,71	27,258
446,91	27,113
447,12	30,759
447,32	23,388
447,52	25,192
447,72	28,791
447,93	28,990
448,13	21,455
448,33	30,784
448,54	26,617
448,74	25,472
448,94	28,779
449,15	27,965
449,35	22,470
449,55	23,704
449,76	35,405
449,96	26,025
450,16	26,090
450,37	25,932
450,57	26,350
450,77	19,141
450,98	24,742
451,18	29,353
451,38	25,858
451,58	26,121
451,79	29,233
451,99	27,822
452,19	24,515
452,40	23,797
452,60	25,228
452,80	24,832
453,00	26,787
453,21	26,593
453,41	26,598
453,61	27,440
453,82	26,514
454,02	20,274
454,22	29,222
454,42	29,220
454,63	26,940
454,83	24,194
455,03	27,114
455,24	28,274
455,44	24,474
455,64	27,367
455,84	26,547
456,05	22,310
456,25	23,542
456,45	26,428
456,65	23,318
456,86	29,778
457,06	27,712
457,26	32,402
457,47	28,612
457,67	28,179
457,87	22,648
458,07	27,459
458,28	26,967
458,48	29,365
458,68	19,709
458,88	23,140
459,09	26,051
459,29	31,464
459,49	26,646
459,69	30,377
459,90	31,146
460,10	27,457
460,30	25,183
460,50	26,468
460,71	25,534
460,91	24,128
461,11	25,533
461,31	22,267
461,52	28,476
461,72	24,352
461,92	27,381
462,12	31,056
462,32	20,090
462,53	22,484
462,73	23,094
462,93	27,640
463,13	24,845
463,34	24,274
463,54	26,428
463,74	23,465
463,94	22,277
464,14	25,495
464,35	20,129
464,55	29,359
464,75	28,002
464,95	26,468
465,16	21,011
465,36	24,502
465,56	26,209
465,76	25,048
465,96	22,856
466,17	24,582
466,37	25,983
466,57	29,079
466,77	25,247
466,97	24,369
467,18	25,491
467,38	22,882
467,58	22,940
467,78	30,221
467,98	27,271
468,19	25,820
468,39	30,738
468,59	25,276
468,79	27,600
468,99	23,441
469,19	21,252
469,40	28,328
469,60	13,491
469,80	26,347
470,00	25,469
470,20	26,296
470,41	26,776
470,61	24,085
470,81	23,517
471,01	20,300
471,21	24,589
471,41	21,370
471,62	24,384
471,82	23,385
472,02	21,839
472,22	25,544
472,42	24,615
472,62	25,054
472,83	25,484
473,03	23,014
473,23	24,556
473,43	26,006
473,63	23,809
473,83	25,994
474,03	22,330
474,24	29,059
474,44	24,648
474,64	23,642
474,84	24,676
475,04	26,342
475,24	25,545
475,45	24,874
475,65	20,237
475,85	26,032
476,05	22,416
476,25	25,388
476,45	23,443
476,65	27,741
476,85	25,394
477,06	24,438
477,26	21,073
477,46	25,016
477,66	25,790
477,86	22,036
478,06	19,857
478,26	29,928
478,46	23,634
478,67	28,109
478,87	20,719
479,07	21,946
479,27	27,981
479,47	24,297
479,67	20,697
479,87	23,478
480,07	24,516
480,28	24,849
480,48	20,810
480,68	25,378
480,88	26,958
481,08	25,652
481,28	26,245
481,48	25,798
481,68	24,637
481,88	21,213
482,08	22,785
482,29	26,591
482,49	19,390
482,69	23,760
482,89	23,062
483,09	25,176
483,29	22,855
483,49	22,374
483,69	23,312
483,89	24,145
484,09	20,440
484,29	20,553
484,50	22,766
484,70	23,472
484,90	20,473
485,10	21,145
485,30	22,639
485,50	24,408
485,70	22,867
485,90	21,240
486,10	18,472
486,30	21,227
486,50	22,703
486,70	20,906
486,90	22,202
487,10	23,442
487,30	23,464
487,51	21,619
487,71	20,667
487,91	19,164
488,11	22,027
488,31	19,378
488,51	23,823
488,71	22,220
488,91	22,008
489,11	19,890
489,31	18,473
489,51	19,278
489,71	20,038
489,91	22,099
490,11	18,890
490,31	21,849
490,51	23,139
490,71	20,555
490,91	20,424
491,11	20,939
491,31	21,929
491,51	19,952
491,72	22,451
491,92	22,599
492,12	22,603
492,32	21,764
492,52	24,733
492,72	22,651
492,92	19,908
493,12	21,432
493,32	21,724
493,52	19,305
493,72	21,876
493,92	23,938
494,12	21,167
494,32	23,043
494,52	21,772
494,72	22,098
494,92	18,476
495,12	23,636
495,32	23,045
495,52	20,433
495,72	23,242
495,92	23,641
496,12	22,853
496,32	22,049
496,52	22,853
496,72	19,380
496,92	23,558
497,12	23,042
497,32	21,924
497,52	21,493
497,72	25,916
497,92	22,270
498,12	20,922
498,32	20,410
498,52	23,779
498,72	20,302
498,92	20,147
499,12	20,283
499,32	19,144
499,52	23,590
499,72	23,046
499,92	23,075
500,12	23,653
500,32	21,776
500,52	21,569
500,72	26,691
500,91	23,165
501,11	22,020
501,31	17,387
501,51	23,770
501,71	23,405
501,91	23,904
502,11	23,183
502,31	22,445
502,51	23,314
502,71	21,002
502,91	20,721
503,11	22,953
503,31	20,435
503,51	20,536
503,71	20,359
503,91	24,451
504,11	22,872
504,31	21,541
504,51	22,433
504,71	24,576
504,91	22,797
505,10	20,250
505,30	21,714
505,50	23,051
505,70	20,125
505,90	21,974
506,10	20,189
506,30	22,860
506,50	21,706
506,70	23,530
506,90	21,896
507,10	23,018
507,30	22,375
507,50	22,483
507,70	21,265
507,89	20,448
508,09	19,911
508,29	21,489
508,49	20,337
508,69	19,784
508,89	20,337
509,09	20,314
509,29	19,713
509,49	22,890
509,69	23,127
509,89	19,140
510,09	19,442
510,28	21,128
510,48	21,902
510,68	18,219
510,88	20,272
511,08	17,529
511,28	20,799
511,48	19,906
511,68	19,111
511,88	17,710
512,07	20,633
512,27	19,716
512,47	20,836
512,67	17,421
512,87	20,119
513,07	21,042
513,27	18,146
513,47	17,954
513,67	17,516
513,86	19,620
514,06	20,482
514,26	18,748
514,46	21,184
514,66	19,995
514,86	18,990
515,06	23,428
515,26	22,331
515,45	19,399
515,65	16,678
515,85	19,021
516,05	15,797
516,25	19,298
516,45	20,985
516,65	17,116
516,84	17,223
517,04	20,445
517,24	17,772
517,44	21,078
517,64	22,061
517,84	20,187
518,04	19,594
518,23	20,258
518,43	20,182
518,63	17,421
518,83	18,726
519,03	18,997
519,23	18,859
519,42	18,564
519,62	16,561
519,82	22,152
520,02	17,392
520,22	15,577
520,42	15,928
520,61	18,542
520,81	21,073
521,01	19,019
521,21	18,361
521,41	19,183
521,61	19,597
521,80	16,690
522,00	18,487
522,20	15,117
522,40	19,248
522,60	18,996
522,79	18,721
522,99	19,521
523,19	18,468
523,39	17,320
523,59	19,024
523,78	18,829
523,98	16,271
524,18	18,942
524,38	17,440
524,58	17,903
524,77	18,755
524,97	18,080
525,17	17,532
525,37	16,189
525,57	18,327
525,76	15,727
525,96	17,937
526,16	14,971
526,36	14,834
526,56	16,435
526,75	15,900
526,95	15,996
527,15	16,821
527,35	18,262
527,55	17,549
527,74	20,268
527,94	15,585
528,14	15,576
528,34	18,113
528,53	16,006
528,73	15,180
528,93	16,228
529,13	15,975
529,32	17,735
529,52	17,163
529,72	17,303
529,92	13,830
530,12	16,694
530,31	12,822
530,51	16,793
530,71	17,420
530,91	17,951
531,10	14,240
531,30	14,668
531,50	15,698
531,70	15,433
531,89	17,072
532,09	15,396
532,29	16,051
532,49	17,585
532,68	15,299
532,88	14,822
533,08	14,692
533,28	16,338
533,47	15,527
533,67	14,959
533,87	14,684
534,06	18,834
534,26	14,990
534,46	14,351
534,66	16,916
534,85	15,606
535,05	9,816
535,25	13,180
535,45	13,646
535,64	18,049
535,84	13,456
536,04	14,222
536,23	15,902
536,43	14,380
536,63	13,801
536,83	14,210
537,02	15,130
537,22	15,513
537,42	14,169
537,61	14,549
537,81	16,860
538,01	17,000
538,20	13,670
538,40	14,860
538,60	14,532
538,80	13,539
538,99	14,968
539,19	12,903
539,39	12,466
539,58	16,740
539,78	10,752
539,98	11,808
540,17	10,908
540,37	11,818
540,57	12,507
540,76	11,541
540,96	10,344
541,16	12,822
541,36	10,179
541,55	8,644
541,75	9,131
541,95	9,183
542,14	10,715
542,34	9,108
542,54	8,637
542,73	10,885
542,93	10,432
543,13	9,352
543,32	9,268
543,52	9,621
543,72	9,466
543,91	9,522
544,11	6,905
544,31	9,139
544,50	10,173
544,70	9,893
544,89	11,129
545,09	10,671
545,29	9,011
545,48	9,346
545,68	9,211
545,88	12,562
546,07	10,039
546,27	10,295
546,47	10,769
546,66	12,857
546,86	10,990
547,06	9,927
547,25	11,725
547,45	13,956
547,64	11,954
547,84	15,505
548,04	12,385
548,23	12,133
548,43	13,050
548,63	14,497
548,82	11,683
549,02	12,592
549,21	12,620
549,41	14,496
549,61	12,166
549,80	12,458
550,00	13,351
550,20	12,038
550,39	15,311
550,59	12,372
550,78	13,752
550,98	11,426
551,18	15,872
551,37	13,890
551,57	12,422
551,76	12,002
551,96	12,608
552,16	12,571
552,35	12,654
552,55	15,764
552,74	13,223
552,94	13,944
553,14	14,401
553,33	12,481
553,53	11,409
553,72	12,741
553,92	14,472
554,12	12,765
554,31	14,290
554,51	15,018
554,70	11,749
554,90	13,186
555,09	13,990
555,29	13,395
555,49	13,630
555,68	17,790
555,88	14,115
556,07	13,155
556,27	14,800
556,46	12,026
556,66	12,088
556,86	14,814
557,05	14,588
557,25	13,732
557,44	13,337
557,64	13,408
557,83	12,403
558,03	12,667
558,22	12,710
558,42	14,314
558,62	16,358
558,81	15,028
559,01	13,228
559,20	15,411
559,40	12,650
559,59	12,028
559,79	11,267
559,98	14,202
560,18	13,287
560,37	14,612
560,57	15,650
560,76	12,562
560,96	12,024
561,16	15,643
561,35	13,606
561,55	17,151
561,74	13,027
561,94	13,868
562,13	14,793
562,33	16,469
562,52	14,714
562,72	12,903
562,91	12,289
563,11	13,880
563,30	14,923
563,50	10,416
563,69	11,267
563,89	12,774
564,08	14,298
564,28	12,644
564,47	13,201
564,67	12,856
564,86	12,940
565,06	13,107
565,25	12,254
565,45	13,543
565,64	17,933
565,84	14,549
566,03	13,042
566,23	13,144
566,42	15,273
566,62	12,505
566,81	15,635
567,01	12,491
567,20	14,809
567,40	12,753
567,59	12,692
567,79	12,267
567,98	16,762
568,18	13,339
568,37	14,900
568,57	13,827
568,76	15,115
568,96	13,768
569,15	12,245
569,35	13,214
569,54	16,865
569,73	14,481
569,93	13,433
570,12	13,898
570,32	13,947
570,51	14,871
570,71	14,556
570,90	14,972
571,10	13,798
571,29	13,306
571,49	13,014
571,68	12,617
571,87	13,322
572,07	14,891
572,26	13,202
572,46	14,323
572,65	15,890
572,85	12,248
573,04	15,548
573,24	13,017
573,43	15,454
573,62	15,165
573,82	13,450
574,01	12,932
574,21	13,830
574,40	11,239
574,60	12,846
574,79	14,755
574,98	14,139
575,18	15,826
575,37	14,164
575,57	13,655
575,76	14,761
575,96	15,741
576,15	14,356
576,34	13,808
576,54	15,040
576,73	15,065
576,93	14,724
577,12	14,184
577,31	14,250
577,51	13,477
577,70	13,889
577,90	15,742
578,09	13,513
578,28	14,556
578,48	14,144
578,67	16,546
578,87	15,045
579,06	13,969
579,25	15,873
579,45	17,447
579,64	13,925
579,84	15,524
580,03	14,064
580,22	16,171
580,42	13,896
580,61	15,866
580,81	15,371
581,00	16,528
581,19	16,564
581,39	15,468
581,58	16,239
581,77	15,430
581,97	16,374
582,16	14,938
582,35	13,430
582,55	15,256
582,74	17,394
582,94	14,831
583,13	14,180
583,32	16,632
583,52	16,266
583,71	14,729
583,90	15,353
584,10	15,109
584,29	16,141
584,48	14,888
584,68	16,885
584,87	17,303
585,06	15,630
585,26	15,108
585,45	15,494
585,65	17,550
585,84	15,588
586,03	15,724
586,23	15,213
586,42	15,860
586,61	18,487
586,81	18,056
587,00	16,686
587,19	17,542
587,39	19,593
587,58	17,600
587,77	17,396
587,97	16,789
588,16	16,558
588,35	16,808
588,54	17,528
588,74	16,867
588,93	18,217
589,12	17,543
589,32	18,247
589,51	18,806
589,70	16,345
589,90	18,209
590,09	16,939
590,28	20,892
590,48	16,915
590,67	19,651
590,86	18,913
591,06	17,860
591,25	19,641
591,44	18,756
591,63	18,731
591,83	19,519
592,02	20,188
592,21	17,604
592,41	19,011
592,60	20,471
592,79	20,663
592,98	18,663
593,18	19,238
593,37	18,909
593,56	19,281
593,76	20,913
593,95	20,314
594,14	19,621
594,33	21,464
594,53	18,818
594,72	19,323
594,91	21,549
595,10	20,554
595,30	20,219
595,49	19,295
595,68	21,615
595,88	21,558
596,07	21,443
596,26	20,304
596,45	21,672
596,65	20,829
596,84	19,748
597,03	21,400
597,22	22,513
597,42	22,861
597,61	20,513
597,80	20,574
597,99	21,745
598,19	22,954
598,38	22,998
598,57	22,222
598,76	23,138
598,95	23,339
599,15	23,488
599,34	23,083
599,53	22,802
599,72	21,672
599,92	23,626
600,11	22,594
600,30	23,589
600,49	23,839
600,69	23,056
600,88	24,862
601,07	23,859
601,26	22,822
601,45	23,637
601,65	22,978
601,84	23,320
602,03	23,849
602,22	24,767
602,42	24,954
602,61	24,573
602,80	24,983
602,99	25,754
603,18	23,175
603,38	24,234
603,57	25,493
603,76	23,730
603,95	24,254
604,14	24,642
604,34	24,914
604,53	23,237
604,72	25,621
604,91	26,464
605,10	24,633
605,29	25,931
605,49	25,163
605,68	25,369
605,87	26,045
606,06	25,418
606,25	25,347
606,45	26,502
606,64	24,310
606,83	25,884
607,02	26,749
607,21	26,069
607,40	25,351
607,60	24,343
607,79	25,215
607,98	23,364
608,17	24,131
608,36	23,571
608,55	24,295
608,75	24,028
608,94	24,666
609,13	21,944
609,32	21,401
609,51	22,269
609,70	22,552
609,89	22,697
610,09	21,751
610,28	23,420
610,47	21,830
610,66	20,539
610,85	20,469
611,04	23,000
611,23	21,196
611,43	21,432
611,62	21,524
611,81	22,212
612,00	22,142
612,19	21,526
612,38	21,576
612,57	22,954
612,77	22,680
612,96	22,651
613,15	22,310
613,34	24,298
613,53	25,291
613,72	26,375
613,91	24,503
614,10	24,142
614,29	27,405
614,49	23,975
614,68	23,128
614,87	24,833
615,06	29,124
615,25	25,059
615,44	27,816
615,63	26,422
615,82	24,853
616,01	26,311
616,21	26,783
616,40	27,513
616,59	28,079
616,78	26,599
616,97	28,277
617,16	28,152
617,35	29,097
617,54	29,298
617,73	28,681
617,92	26,364
618,11	28,556
618,31	25,141
618,50	28,945
618,69	25,822
618,88	26,756
619,07	26,680
619,26	25,447
619,45	26,606
619,64	26,629
619,83	25,953
620,02	26,570
620,21	27,853
620,40	26,674
620,59	27,747
620,78	26,288
620,97	28,136
621,17	27,206
621,36	27,075
621,55	26,465
621,74	26,884
621,93	27,014
622,12	27,761
622,31	28,244
622,50	27,134
622,69	28,670
622,88	29,060
623,07	29,410
623,26	28,588
623,45	30,560
623,64	26,257
623,83	27,805
624,02	30,164
624,21	29,754
624,40	27,947
624,59	28,350
624,78	28,564
624,97	29,029
625,16	26,128
625,35	26,666
625,54	27,034
625,73	28,439
625,92	28,274
626,12	27,742
626,31	30,808
626,50	29,704
626,69	29,890
626,88	28,053
627,07	29,898
627,26	27,640
627,45	26,340
627,64	28,273
627,83	29,490
628,02	27,652
628,21	28,170
628,40	27,954
628,59	29,191
628,78	27,807
628,97	28,775
629,16	27,054
629,35	27,687
629,54	30,017
629,73	29,349
629,92	27,929
630,10	28,850
630,29	27,687
630,48	28,544
630,67	28,555
630,86	29,777
631,05	30,472
631,24	29,672
631,43	27,546
631,62	28,233
631,81	28,625
632,00	28,310
632,19	27,386
632,38	27,162
632,57	25,341
632,76	28,625
632,95	29,003
633,14	31,210
633,33	28,259
633,52	30,193
633,71	29,386
633,90	29,028
634,09	29,352
634,28	29,235
634,47	29,205
634,66	29,047
634,85	29,513
635,04	31,632
635,22	30,977
635,41	30,065
635,60	29,574
635,79	32,275
635,98	27,684
636,17	30,932
636,36	27,899
636,55	30,593
636,74	29,671
636,93	29,802
637,12	30,497
637,31	30,440
637,50	27,385
637,69	30,221
637,87	30,240
638,06	29,245
638,25	29,504
638,44	30,475
638,63	28,034
638,82	30,247
639,01	28,434
639,20	30,263
639,39	30,749
639,58	28,228
639,77	31,479
639,95	28,998
640,14	32,155
640,33	29,199
640,52	30,068
640,71	31,628
640,90	30,219
641,09	31,262
641,28	28,744
641,47	30,660
641,66	29,763
641,84	29,768
642,03	28,367
642,22	28,838
642,41	31,583
642,60	30,058
642,79	31,061
642,98	32,081
643,17	29,014
643,35	30,075
643,54	28,640
643,73	30,657
643,92	29,438
644,11	29,984
644,30	28,365
644,49	31,284
644,67	27,304
644,86	30,016
645,05	30,681
645,24	29,561
645,43	30,327
645,62	31,008
645,81	29,170
645,99	31,065
646,18	28,758
646,37	29,335
646,56	28,795
646,75	31,166
646,94	31,708
647,13	28,773
647,31	28,982
647,50	30,163
647,69	31,445
647,88	29,192
648,07	30,095
648,26	32,443
648,44	30,311
648,63	29,020
648,82	30,457
649,01	30,007
649,20	29,997
649,38	29,488
649,57	29,924
649,76	30,316
649,95	31,147
650,14	28,388
650,33	28,992
650,51	29,945
650,70	29,900
650,89	28,125
651,08	29,768
651,27	29,079
651,45	28,667
651,64	29,967
651,83	30,571
652,02	29,176
652,21	30,979
652,39	31,556
652,58	30,532
652,77	29,827
652,96	30,077
653,15	30,518
653,33	30,535
653,52	31,110
653,71	32,337
653,90	31,071
654,09	30,950
654,27	31,716
654,46	31,605
654,65	30,770
654,84	31,094
655,02	31,450
655,21	31,964
655,40	32,737
655,59	30,949
655,77	32,924
655,96	32,263
656,15	31,563
656,34	32,246
656,53	30,888
656,71	30,436
656,90	31,511
657,09	32,639
657,28	31,584
657,46	30,502
657,65	30,847
657,84	29,560
658,03	30,406
658,21	31,711
658,40	29,731
658,59	30,584
658,78	30,140
658,96	27,971
659,15	28,541
659,34	30,248
659,52	29,641
659,71	29,038
659,90	26,830
660,09	29,155
660,27	28,495
660,46	31,040
660,65	29,741
660,84	28,469
661,02	29,978
661,21	30,697
661,40	29,416
661,58	30,193
661,77	28,727
661,96	27,564
662,15	29,148
662,33	29,574
662,52	28,237
662,71	30,677
662,89	25,983
663,08	28,212
663,27	28,891
663,45	27,476
663,64	28,891
663,83	27,157
664,02	27,807
664,20	30,779
664,39	28,907
664,58	28,162
664,76	27,843
664,95	27,493
665,14	27,832
665,32	27,160
665,51	30,568
665,70	28,583
665,88	30,080
666,07	28,532
666,26	29,585
666,44	29,530
666,63	26,013
666,82	26,653
667,00	29,228
667,19	27,284
667,38	27,625
667,56	28,375
667,75	27,665
667,94	29,071
668,12	26,757
668,31	28,574
668,50	26,582
668,68	29,150
668,87	26,931
669,06	27,460
669,24	28,840
669,43	27,680
669,62	27,347
669,80	25,797
669,99	27,607
670,18	28,336
670,36	26,512
670,55	28,136
670,74	27,353
670,92	26,437
671,11	28,604
671,29	27,097
671,48	25,953
671,67	29,109
671,85	27,575
672,04	26,741
672,23	26,632
672,41	26,844
672,60	28,115
672,78	25,428
672,97	28,247
673,16	26,711
673,34	26,943
673,53	26,224
673,71	27,899
673,90	27,905
674,09	27,486
674,27	27,151
674,46	29,070
674,64	28,590
674,83	28,000
675,02	26,577
675,20	27,411
675,39	26,621
675,57	26,434
675,76	25,856
675,95	27,857
676,13	27,103
676,32	28,038
676,50	26,658
676,69	25,303
676,88	27,219
677,06	25,540
677,25	27,458
677,43	29,351
677,62	27,696
677,80	28,533
677,99	27,230
678,18	27,243
678,36	29,172
678,55	25,991
678,73	27,574
678,92	27,528
679,10	27,243
679,29	27,897
679,48	25,840
679,66	26,995
679,85	26,296
680,03	27,010
680,22	26,158
680,40	26,217
680,59	27,328
680,77	27,197
680,96	27,806
681,15	27,172
681,33	27,487
681,52	26,744
681,70	26,674
681,89	29,490
682,07	29,094
682,26	26,556
682,44	27,478
682,63	29,441
682,81	29,704
683,00	28,856
683,18	27,703
683,37	29,295
683,55	28,414
683,74	28,260
683,92	30,634
684,11	28,966
684,29	27,916
684,48	27,203
684,67	28,156
684,85	28,178
685,04	29,112
685,22	28,157
685,41	28,350
685,59	29,539
685,78	27,959
685,96	26,868
686,15	29,492
686,33	28,006
686,52	28,315
686,70	27,243
686,89	29,110
687,07	29,463
687,26	28,989
687,44	29,013
687,62	28,276
687,81	30,401
687,99	28,982
688,18	30,272
688,36	29,847
688,55	28,830
688,73	29,556
688,92	28,867
689,10	29,672
689,29	29,889
689,47	30,604
689,66	29,886
689,84	28,607
690,03	31,793
690,21	29,972
690,40	29,379
690,58	28,455
690,76	30,033
690,95	29,760
691,13	29,770
691,32	29,221
691,50	30,876
691,69	31,953
691,87	28,337
692,06	29,753
692,24	30,280
692,43	31,481
692,61	28,955
692,79	29,685
692,98	29,053
693,16	31,764
693,35	30,040
693,53	29,578
693,72	31,473
693,90	31,250
694,08	30,560
694,27	29,213
694,45	33,664
694,64	32,005
694,82	30,658
695,01	29,781
695,19	30,718
695,37	30,029
695,56	31,681
695,74	31,050
695,93	31,702
696,11	29,953
696,29	30,651
696,48	31,123
696,66	29,702
696,85	31,804
697,03	31,090
697,21	33,548
697,40	30,764
697,58	30,487
697,77	30,711
697,95	32,453
698,13	30,801
698,32	29,973
698,50	31,751
698,69	29,216
698,87	32,420
699,05	30,608
699,24	29,192
699,42	30,162
699,60	28,997
699,79	28,635
699,97	30,762
700,16	29,895
700,34	32,623
700,52	31,485
700,71	31,189
700,89	30,686
701,07	31,566
701,26	32,231
701,44	29,946
701,63	29,099
701,81	30,121
701,99	30,627
702,18	28,971
702,36	29,462
702,54	28,899
702,73	31,064
702,91	30,329
703,09	31,770
703,28	31,064
703,46	32,198
703,64	30,994
703,83	31,261
704,01	31,284
704,19	29,406
704,38	29,196
704,56	31,938
704,74	32,660
704,93	30,455
705,11	31,223
705,29	30,550
705,48	33,673
705,66	31,034
705,84	31,124
706,03	28,627
706,21	31,431
706,39	29,661
706,58	31,803
706,76	30,559
706,94	32,428
707,12	31,338
707,31	30,339
707,49	30,017
707,67	31,552
707,86	31,510
708,04	30,246
708,22	30,480
708,41	31,972
708,59	30,303
708,77	27,069
708,95	31,618
709,14	32,681
709,32	30,646
709,50	30,215
709,69	28,550
709,87	30,273
710,05	29,668
710,23	31,239
710,42	30,837
710,60	31,023
710,78	33,312
710,97	30,837
711,15	30,316
711,33	32,518
711,51	30,156
711,70	29,863
711,88	30,047
712,06	31,675
712,24	31,848
712,43	30,161
712,61	30,461
712,79	30,391
712,97	30,257
713,16	32,372
713,34	30,845
713,52	31,800
713,70	30,617
713,89	30,687
714,07	32,454
714,25	30,025
714,43	33,988
714,62	28,933
714,80	30,846
714,98	29,841
715,16	33,227
715,35	29,885
715,53	30,506
715,71	30,070
715,89	33,825
716,07	30,400
716,26	34,950
716,44	31,744
716,62	31,311
716,80	30,899
716,99	29,834
717,17	31,053
717,35	31,425
717,53	28,564
717,71	29,922
717,90	33,155
718,08	31,798
718,26	30,807
718,44	32,461
718,62	32,017
718,81	32,105
718,99	31,369
719,17	32,406
719,35	31,971
719,53	30,641
719,72	29,731
719,90	31,456
720,08	29,372
720,26	31,396
720,44	29,665
720,62	31,721
720,81	33,975
720,99	32,853
721,17	30,627
721,35	32,187
721,53	31,473
721,72	32,718
721,90	32,293
722,08	31,539
722,26	32,499
722,44	31,401
722,62	30,177
722,81	31,415
722,99	31,794
723,17	30,169
723,35	31,879
723,53	29,726
723,71	32,961
723,89	33,495
724,08	30,614
724,26	30,992
724,44	31,176
724,62	32,765
724,80	31,342
724,98	30,149
725,16	34,719
725,35	31,153
725,53	28,900
725,71	29,765
725,89	31,977
726,07	32,794
726,25	32,730
726,43	31,851
726,61	32,186
726,80	32,917
726,98	30,020
727,16	30,733
727,34	32,613
727,52	31,660
727,70	31,294
727,88	31,118
728,06	32,054
728,25	30,834
728,43	32,211
728,61	31,400
728,79	32,380
728,97	33,180
729,15	32,489
729,33	33,733
729,51	32,033
729,69	32,657
729,87	29,798
730,06	31,379
730,24	32,633
730,42	32,687
730,60	30,344
730,78	31,931
730,96	32,945
731,14	31,158
731,32	31,663
731,50	29,832
731,68	31,848
731,86	31,492
732,04	30,335
732,22	29,512
732,41	32,591
732,59	32,980
732,77	32,188
732,95	33,218
733,13	32,858
733,31	31,907
733,49	29,016
733,67	32,724
733,85	32,537
734,03	33,000
734,21	30,970
734,39	30,401
734,57	33,102
734,75	32,487
734,93	31,328
735,11	32,430
735,29	30,466
735,47	33,409
735,65	31,200
735,84	31,509
736,02	30,608
736,20	33,919
736,38	30,002
736,56	29,439
736,74	32,064
736,92	30,805
737,10	32,645
737,28	32,446
737,46	32,741
737,64	31,423
737,82	31,427
738,00	33,449
738,18	32,229
738,36	30,685
738,54	29,745
738,72	29,688
738,90	31,849
739,08	31,046
739,26	28,577
739,44	30,984
739,62	32,761
739,80	31,630
739,98	31,318
740,16	30,719
740,34	31,199
740,52	32,465
740,70	31,346
740,88	30,433
741,06	30,904
741,24	32,808
741,42	33,582
741,60	30,884
741,78	32,945
741,96	29,474
742,14	30,962
742,32	29,133
742,50	31,716
742,68	32,966
742,86	32,552
743,04	30,789
743,21	32,173
743,39	31,971
743,57	31,139
743,75	30,682
743,93	30,030
744,11	28,815
744,29	29,817
744,47	30,935
744,65	29,647
744,83	32,022
745,01	31,075
745,19	30,431
745,37	34,703
745,55	31,591
745,73	30,430
745,91	29,317
746,09	30,375
746,27	29,103
746,45	29,305
746,62	32,232
746,80	30,657
746,98	32,627
747,16	31,112
747,34	31,864
747,52	30,370
747,70	30,511
747,88	33,275
748,06	31,200
748,24	31,005
748,42	32,742
748,60	30,898
748,78	30,362
748,95	32,662
749,13	33,906
749,31	32,449
749,49	32,485
749,67	31,677
749,85	31,658
750,03	32,504
750,21	31,249
750,39	33,017
750,57	31,969
750,74	30,946
750,92	30,327
751,10	32,925
751,28	28,803
751,46	32,430
751,64	31,040
751,82	31,348
752,00	30,865
752,17	31,762
752,35	31,220
752,53	32,057
752,71	30,587
752,89	32,213
753,07	30,480
753,25	32,115
753,43	30,033
753,60	32,949
753,78	30,397
753,96	32,865
754,14	32,494
754,32	32,333
754,50	32,653
754,68	31,546
754,85	31,918
755,03	32,129
755,21	31,539
755,39	33,738
755,57	31,917
755,75	31,376
755,92	31,767
756,10	31,482
756,28	31,959
756,46	30,013
756,64	30,062
756,82	31,693
756,99	32,663
757,17	30,147
757,35	30,499
757,53	32,735
757,71	34,560
757,89	31,712
758,06	31,432
758,24	32,972
758,42	31,115
758,60	31,004
758,78	29,574
758,95	31,154
759,13	33,975
759,31	30,849
759,49	31,302
759,67	31,718
759,84	32,227
760,02	31,559
760,20	33,121
760,38	31,137
760,56	30,322
760,73	30,910
760,91	33,066
761,09	32,922
761,27	29,884
761,45	31,535
761,62	31,351
761,80	31,058
761,98	31,520
762,16	32,395
762,33	31,369
762,51	32,981
762,69	30,285
762,87	31,414
763,05	30,495
763,22	29,817
763,40	30,654
763,58	32,385
763,76	31,883
763,93	34,591
764,11	33,418
764,29	29,472
764,47	31,891
764,64	32,026
764,82	31,423
765,00	28,213
765,18	28,608
765,35	30,664
765,53	31,460
765,71	32,885
765,89	32,682
766,06	29,107
766,24	30,496
766,42	32,458
766,60	29,460
766,77	31,131
766,95	30,037
767,13	31,363
767,30	30,154
767,48	32,120
767,66	31,201
767,84	30,225
768,01	29,224
768,19	31,869
768,37	30,335
768,54	29,399
768,72	33,055
768,90	29,957
769,08	30,847
769,25	30,077
769,43	30,785
769,61	28,943
769,78	31,102
769,96	31,191
770,14	32,448
770,31	31,929
770,49	32,243
770,67	32,203
770,85	30,660
771,02	31,909
771,20	29,362
771,38	33,013
771,55	29,861
771,73	30,819
771,91	30,706
772,08	32,993
772,26	30,976
772,44	31,695
772,61	31,070
772,79	30,500
772,97	31,757
773,14	30,329
773,32	32,260
773,50	31,555
773,67	31,201
773,85	31,863
774,03	30,992
774,20	30,210
774,38	32,475
774,56	31,220
774,73	30,136
774,91	30,888
775,09	32,665
775,26	30,299
775,44	31,047
775,61	32,715
775,79	31,485
775,97	32,451
776,14	31,300
776,32	30,128
776,50	29,804
776,67	30,149
776,85	30,979
777,03	30,449
777,20	32,345
777,38	33,396
777,55	32,268
777,73	27,126
777,91	28,952
778,08	32,489
778,26	31,333
778,43	32,842
778,61	30,301
778,79	30,128
778,96	29,500
779,14	30,589
779,32	31,278
779,49	30,916
779,67	31,755
779,84	29,811
780,02	32,187
780,20	30,509
780,37	30,029
780,55	25,597
780,72	34,334
780,90	34,057
781,07	30,714
781,25	32,816
781,43	32,188
781,60	31,440
781,78	35,211
781,95	31,397
782,13	29,964
782,30	32,420
782,48	33,471
782,66	30,781
782,83	29,621
783,01	35,245
783,18	32,515
783,36	32,047
783,53	35,110
783,71	31,706
783,89	31,798
784,06	35,362
784,24	32,012
784,41	32,714
784,59	31,205
784,76	30,070
784,94	30,974
785,11	30,991
785,29	31,973
785,46	29,854
785,64	31,434
785,82	32,208
785,99	32,593
786,17	32,259
786,34	30,686
786,52	33,667
786,69	32,431
786,87	31,666
787,04	30,936
787,22	31,035
787,39	32,807
787,57	32,933
787,74	31,335
787,92	34,636
788,09	31,984
788,27	33,421
788,44	31,041
788,62	33,661
788,79	32,652
788,97	33,248
789,14	34,699
789,32	32,711
789,49	31,507
789,67	32,191
789,84	32,742
790,02	31,933
790,19	30,125
790,37	33,084
790,54	33,345
790,72	37,120
790,89	36,436
791,07	35,635
791,24	30,085
791,42	33,229
791,59	33,741
791,77	31,472
791,94	31,043
792,12	32,480
792,29	34,664
792,47	33,312
792,64	30,791
792,81	33,975
792,99	32,939
793,16	34,138
793,34	32,535
793,51	31,344
793,69	36,508
793,86	29,748
794,04	31,952
794,21	34,193
794,39	29,603
794,56	31,460
794,73	34,702
794,91	34,058
795,08	32,882
795,26	33,011
795,43	32,711
795,61	33,865
795,78	34,448
795,95	31,305
796,13	30,614
796,30	32,742
796,48	31,222
796,65	32,950
796,83	34,114
797,00	32,911
797,17	32,400
797,35	32,283
797,52	33,923
797,70	35,985
797,87	32,609
798,04	30,609
798,22	31,007
798,39	32,531
798,57	31,735
798,74	32,172
798,91	29,849
799,09	29,516
799,26	35,008
799,44	31,178
799,61	32,507
799,78	30,645
799,96	33,635
800,13	32,423
800,31	29,911
800,48	34,553
800,65	36,798
800,83	30,589
801,00	31,661
801,17	33,028
801,35	30,498
801,52	30,035
801,70	32,114
801,87	32,118
802,04	33,766
802,22	30,805
802,39	31,080
802,56	39,051
802,74	32,645
802,91	32,675
803,08	31,386
803,26	31,468
803,43	35,004
803,61	32,365
803,78	32,019
803,95	35,541
804,13	35,038
804,30	33,576
804,47	36,061
804,65	35,335
804,82	32,330
804,99	34,147
805,17	36,148
805,34	36,284
805,51	36,126
805,69	32,814
805,86	33,620
806,03	39,665
806,21	38,188
806,38	34,526
806,55	35,774
806,72	34,598
806,90	36,055
807,07	33,135
807,24	32,534
807,42	33,928
807,59	33,813
807,76	32,813
807,94	33,256
808,11	35,031
808,28	36,301
808,45	35,607
808,63	35,847
808,80	32,973
808,97	34,364
809,15	33,181
809,32	37,084
809,49	31,397
809,67	31,164
809,84	33,089
810,01	34,490
810,18	41,845
810,36	40,135
810,53	35,017
810,70	35,710
810,87	37,511
811,05	35,652
811,22	37,282
811,39	37,749
811,57	39,871
811,74	35,321
811,91	30,877
812,08	34,889
812,26	34,861
812,43	33,104
812,60	37,081
812,77	31,975
812,95	37,473
813,12	35,780
813,29	31,742
813,46	35,268
813,64	35,357
813,81	37,075
813,98	32,627
814,15	33,259
814,32	36,762
814,50	35,607
814,67	36,498
814,84	33,364
815,01	38,110
815,19	35,328
815,36	31,589
815,53	34,214
815,70	35,684
815,87	35,408
816,05	31,598
816,22	37,052
816,39	37,728
816,56	37,231
816,74	37,766
816,91	30,320
817,08	41,906
817,25	39,030
817,42	33,665
817,60	33,946
817,77	34,649
817,94	34,270
818,11	34,395
818,28	37,486
818,45	35,298
818,63	35,359
818,80	35,350
818,97	33,470
819,14	41,109
819,31	39,916
819,49	35,730
819,66	33,513
819,83	35,035
820,00	36,256
820,17	32,155
820,34	37,857
820,52	37,271
820,69	37,852
820,86	32,746
821,03	34,664
821,20	37,709
821,37	37,231
821,55	33,619
821,72	33,560
821,89	35,304
822,06	37,508
822,23	35,050
822,40	37,958
822,57	38,326
822,75	39,796
822,92	33,042
823,09	38,344
823,26	41,107
823,43	44,672
823,60	33,230
823,77	41,901
823,94	40,242
824,12	42,889
824,29	31,286
824,46	33,233
824,63	40,708
824,80	42,624
824,97	39,240
825,14	35,930
825,31	38,923
825,49	40,869
825,66	34,004
825,83	36,482
826,00	38,154
826,17	41,919
826,34	36,093
826,51	35,725
826,68	35,488
826,85	37,459
827,02	35,807
827,20	31,792
827,37	34,901
827,54	38,632
827,71	36,800
827,88	34,899
828,05	41,394
828,22	35,707
828,39	37,724
828,56	41,133
828,73	42,335
828,90	38,674
829,07	40,044
829,25	33,268
829,42	39,457
829,59	32,983
829,76	37,693
829,93	29,811
830,10	37,456
830,27	32,378
830,44	39,967
830,61	34,826
830,78	30,227
830,95	36,805
831,12	30,490
831,29	36,627
831,46	33,094
831,63	41,573
831,80	33,803
831,97	37,887
832,14	40,084
832,31	48,328
832,48	33,503
832,65	39,226
832,83	39,319
833,00	39,791
833,17	32,964
833,34	40,424
833,51	37,573
833,68	41,923
833,85	40,094
834,02	32,010
834,19	35,988
834,36	48,129
834,53	31,725
834,70	37,730
834,87	45,793
835,04	37,190
835,21	38,735
835,38	30,795
835,55	35,308
835,72	46,605
835,89	36,223
836,06	37,116
836,23	46,627
836,40	37,602
836,57	32,801
836,74	41,300
836,91	36,069
837,08	48,086
837,25	42,175
837,42	32,807
837,59	37,285
837,76	39,109
837,93	39,257
838,09	35,221
838,26	40,137
838,43	42,795
838,60	40,876
838,77	38,032
838,94	43,461
839,11	33,063
839,28	33,436
839,45	36,326
839,62	42,530
839,79	41,565
839,96	37,871
840,13	40,381
840,30	38,506
840,47	36,253
840,64	25,571
840,81	41,205
840,98	34,854
841,15	43,460
841,32	23,695
841,48	46,719
841,65	44,279
841,82	38,815
841,99	39,712
842,16	38,692
842,33	41,126
842,50	45,943
842,67	42,204
842,84	34,919
843,01	41,114
843,18	43,668
843,35	41,301
843,52	30,135
843,68	40,455
843,85	45,918
844,02	35,255
844,19	31,470
844,36	50,708
844,53	58,103
844,70	36,821
844,87	44,641
845,04	42,482
845,21	33,164
845,37	41,920
845,54	32,676
845,71	28,091
845,88	53,589
846,05	30,783
846,22	35,349
846,39	44,884
846,56	49,934
846,72	34,256
846,89	33,945
847,06	41,424
847,23	45,078
847,40	33,463
847,57	27,956
847,74	35,351
847,90	47,201
848,07	41,451
848,24	51,865
848,41	46,003
848,58	47,982
848,75	40,214
848,92	38,606
849,08	38,415
849,25	42,381
849,42	37,265
849,59	37,780
849,76	38,870
849,93	41,606
850,09	31,605
850,26	28,578
850,43	49,278
850,60	37,439
850,77	42,474
850,94	46,328
851,10	40,198
851,27	43,206
851,44	43,565
851,61	32,642
851,78	45,254
851,95	49,753
852,11	34,178
852,28	33,013
852,45	38,257
852,62	51,170
852,79	35,972
852,95	37,818
853,12	50,445
853,29	39,625
853,46	36,018
853,63	39,024
853,79	37,505
853,96	41,953
854,13	48,908
854,30	32,957
854,46	64,166
854,63	39,003
854,80	47,311
854,97	45,352
855,14	49,378
855,30	42,632
855,47	30,541
855,64	41,995
855,81	46,739
855,97	47,504
856,14	47,023
856,31	39,370
856,48	47,603
856,65	54,776
856,81	46,959
856,98	35,814
857,15	33,735
857,32	39,539
857,48	35,744
857,65	48,345
857,82	48,414
857,99	53,870
858,15	40,928
858,32	34,017
858,49	54,513
858,65	65,527
858,82	43,018
858,99	35,558
859,16	41,284
859,32	54,424
859,49	33,103
859,66	28,983
859,83	52,754
859,99	36,561
860,16	51,471
860,33	44,267
860,49	46,884
860,66	54,577
860,83	49,270
861,00	56,584
861,16	53,335
861,33	53,220
861,50	48,047
861,66	52,905
861,83	66,536
862,00	43,451
862,16	47,642
862,33	42,516
862,50	82,826
862,67	45,548
862,83	51,846
863,00	46,024
863,17	66,119
863,33	58,483
863,50	34,265
863,67	38,310
863,83	45,923
864,00	58,962
864,17	25,921
864,33	37,415
864,50	59,151
864,67	33,044
864,83	37,374
865,00	30,676
865,17	45,676
865,33	61,258
865,50	36,724
865,67	42,053
865,83	62,922
866,00	69,399
866,17	62,671
866,33	43,749
866,50	80,739
866,66	51,728
866,83	32,763
867,00	55,249
867,16	73,554
867,33	59,687
867,50	30,089
867,66	44,497
867,83	59,034
868,00	71,399
868,16	51,336
868,33	32,320
868,49	54,097
868,66	59,048
868,83	51,682
868,99	63,721
869,16	86,265
869,32	63,918
869,49	48,382
869,66	50,217
869,82	60,228
869,99	62,274
870,15	23,746
870,32	63,096
870,49	64,368
870,65	84,799
870,82	49,081
870,98	62,103
871,15	81,966
871,32	61,650
871,48	4,887
871,65	31,258
871,81	60,811
871,98	35,166
872,15	33,439
872,31	54,283
872,48	106,995
872,64	48,769
872,81	26,523
872,97	53,337
873,14	57,560
873,31	68,557
873,47	42,600
873,64	33,958
873,80	64,671
873,97	74,877
874,13	28,305
874,30	57,099
874,46	68,630
874,63	51,327
874,80	23,144
874,96	17,492
875,13	102,920
875,29	34,464
875,46	77,729
875,62	45,237
875,79	85,236
875,95	38,930
876,12	18,941
876,28	51,961
876,45	67,509
876,61	30,886
876,78	73,266
876,94	31,997
877,11	34,496
877,27	63,257
877,44	32,639
877,60	25,087
877,77	53,919
877,94	118,977
878,10	39,003
878,27	74,611
878,43	69,055
878,60	43,143
878,76	71,346
878,93	69,444
879,09	107,668
879,26	78,831
879,42	65,011
879,58	63,854
879,75	112,502
879,91	91,451
880,08	-0,666
880,24	50,243
880,41	70,013
880,57	77,228
880,74	31,599
880,90	34,229
881,07	77,848
881,23	54,844
881,40	73,039
881,56	85,293
881,73	96,765
881,89	79,289
882,06	56,744
882,22	167,075
882,38	85,068
882,55	103,695
882,71	94,459
882,88	29,478
883,04	146,382
883,21	83,223
883,37	58,799
883,54	70,620
883,70	156,918
883,86	94,361
884,03	77,537
884,19	58,430
884,36	-59,216
884,52	87,590
884,69	55,211
884,85	76,862
885,01	117,081
885,18	95,632
885,34	-4,391
885,51	13,038
885,67	83,641
>>>>> Data<<<<< Espectral Procesado Extremo
