Fichero De Datos De SpectraSuite
++++++++++++++++++++++++++++++++++++
Fecha: Wed Apr 22 11:07:53 CEST 2009
Usuario: evoflor
Presente Oscuro Del Espectro: Sí
La Referencia de Presente Del Espectro De: Sí
Muestreados de los componentes de Número de espectros: 1
Espectrómetros: USB4F02353
Tiempo de integración (usec): 500000 (USB4F02353)
Promedio de Espectros Hechos un: 5 (USB4F02353)
El Alisar Del Furgón: 0 (USB4F02353)
Párrafo de de Corregir del la del del de Eléctrica del obscuridad: Sí (USB4F02353)
Estrobo/Lámpara Permitido: No (USB4F02353)
Correct for Detector Non-linearity: No (USB4F02353)
Párrafo de de Corregir del la del del de Externa del luz: No (USB4F02353)
Procesado del espectro de Número de pixeles en: 3648
>>>>> Comienza Data<<<<< Espectral Procesado Del EL
177,79	212,456
178,00	212,456
178,22	212,456
178,44	1181,374
178,66	-79,854
178,88	300,342
179,09	-67,213
179,31	205,904
179,53	316,393
179,75	109,925
179,96	601,681
180,18	-54,138
180,40	185,016
180,62	390,438
180,83	-64,897
181,05	-686,524
181,27	-90495,000
181,49	96,750
181,70	192,288
181,92	381,701
182,14	367,455
182,36	153,929
182,58	211,050
182,79	878,103
183,01	32,879
183,23	154,295
183,45	-123,369
183,66	-61,925
183,88	-76,500
184,10	-4574,455
184,32	85,879
184,53	268,634
184,75	-152,227
184,97	70,697
185,18	10,912
185,40	-517,284
185,62	87,750
185,84	-77,522
186,05	-26,399
186,27	7,158
186,49	2338,269
186,71	-85,064
186,92	152,956
187,14	-168,004
187,36	131,505
187,58	49,620
187,79	-89,658
188,01	199,683
188,23	-269,872
188,45	201,777
188,66	-13,862
188,88	-1301,727
189,10	-1282,950
189,31	68,268
189,53	30,465
189,75	293,625
189,97	261,519
190,18	-44,227
190,40	384,088
190,62	-116,864
190,83	-291,625
191,05	79,483
191,27	150,557
191,49	235,136
191,70	-49,976
191,92	-560,975
192,14	-35,608
192,35	407,149
192,57	3074,143
192,79	151,381
193,01	111,860
193,22	69,582
193,44	25,265
193,66	87,268
193,87	182,216
194,09	-26,980
194,31	33,604
194,53	261,503
194,74	125,637
194,96	31,707
195,18	156,314
195,39	-179,406
195,61	-85,500
195,83	-220,207
196,04	171,701
196,26	-115,553
196,48	48,759
196,70	145,915
196,91	55,274
197,13	-149,127
197,35	-125,135
197,56	221,656
197,78	1259,664
198,00	620,245
198,21	474,248
198,43	-960,436
198,65	132,780
198,86	387,032
199,08	166,869
199,30	22,864
199,51	-221,482
199,73	222,817
199,95	246,275
200,16	320,365
200,38	163,150
200,60	107,268
200,81	199,561
201,03	-111,155
201,25	-1111,950
201,46	87,410
201,68	11,494
201,90	2118,068
202,11	8,416
202,33	204,479
202,55	-263,813
202,76	-28,370
202,98	183,606
203,20	-36,995
203,41	-362,605
203,63	126,884
203,85	-67995,000
204,06	-92,819
204,28	-224,566
204,50	119,020
204,71	264,832
204,93	-852,840
205,15	259,021
205,36	-202,285
205,58	211,699
205,80	105,376
206,01	103,561
206,23	150,173
206,45	158,384
206,66	89,370
206,88	56,647
207,10	93,170
207,31	222,377
207,53	117,129
207,75	59,803
207,96	621,604
208,18	-62,278
208,39	103,779
208,61	374,143
208,83	-250,400
209,04	201,488
209,26	80,668
209,48	249,692
209,69	132,895
209,91	287,483
210,13	28,388
210,34	53,499
210,56	78,952
210,77	-1166,102
210,99	97,910
211,21	8658,529
211,42	-139,993
211,64	0,863
211,86	171,678
212,07	189,299
212,29	178,304
212,50	95,089
212,72	-39,635
212,94	216,370
213,15	68,027
213,37	98,936
213,58	-9,080
213,80	207,321
214,02	11517,353
214,23	219,334
214,45	66,541
214,67	-554,817
214,88	110,084
215,10	-317,773
215,31	-77,522
215,53	82,943
215,75	-19,487
215,96	1003,696
216,18	298,521
216,39	138,380
216,61	376,408
216,83	223,192
217,04	389,831
217,26	35,637
217,47	109,116
217,69	324,911
217,91	123,982
218,12	-58995,000
218,34	79,008
218,55	392,825
218,77	112,781
218,99	124,945
219,20	-75,261
219,42	273,773
219,63	139,030
219,85	72,961
220,06	-230,019
220,28	126,008
220,50	49,551
220,71	88,723
220,93	1147,075
221,14	-1201,950
221,36	21,424
221,58	46,555
221,79	40,424
222,01	213,750
222,22	553,914
222,44	-580,955
222,65	86,064
222,87	-323,811
223,09	129,624
223,30	-23,810
223,52	99,702
223,73	221,703
223,95	-25,923
224,16	184,732
224,38	263,495
224,60	47,274
224,81	42,912
225,03	26,316
225,24	181,252
225,46	45,673
225,67	-1,715
225,89	61,904
226,10	226,491
226,32	522,360
226,54	6,292
226,75	-3,561
226,97	125,917
227,18	56,584
227,40	58,355
227,61	37,896
227,83	10,729
228,04	47,465
228,26	39,150
228,47	36,087
228,69	157,310
228,91	11,216
229,12	21,661
229,34	16,637
229,55	18,050
229,77	19,302
229,98	-32,275
230,20	46,898
230,41	-53,875
230,63	48,739
230,84	4,789
231,06	15,489
231,27	31,465
231,49	50,493
231,71	28,274
231,92	7,896
232,14	21,287
232,35	73,050
232,57	44,498
232,78	7,331
233,00	18,979
233,21	8,045
233,43	-1,094
233,64	18,596
233,86	22,520
234,07	38,914
234,29	7,835
234,50	-1,507
234,72	20,946
234,93	2,372
235,15	4,811
235,36	23,274
235,58	15,571
235,79	17,633
236,01	9,046
236,22	5,840
236,44	38,745
236,65	11,896
236,87	13,477
237,08	7,508
237,30	-13,888
237,51	18,215
237,73	-2,658
237,94	0,474
238,16	15,644
238,37	9,603
238,59	-1,674
238,80	6,576
239,02	4,829
239,23	15,154
239,45	-13,366
239,66	5,504
239,88	16,820
240,09	30,178
240,31	4,862
240,52	-0,809
240,74	8,060
240,95	12,507
241,17	1,479
241,38	4,489
241,60	11,249
241,81	15,111
242,03	7,003
242,24	8,016
242,46	19,225
242,67	5,146
242,89	9,155
243,10	19,563
243,32	11,373
243,53	11,307
243,75	0,702
243,96	6,282
244,18	9,284
244,39	3,489
244,60	7,602
244,82	0,311
245,03	15,349
245,25	9,918
245,46	13,386
245,68	3,721
245,89	11,049
246,11	5,813
246,32	11,899
246,54	3,727
246,75	8,827
246,97	1,728
247,18	19,212
247,39	-0,407
247,61	7,582
247,82	2,759
248,04	-2,057
248,25	6,739
248,47	12,014
248,68	5,672
248,90	1,340
249,11	10,114
249,33	12,122
249,54	9,630
249,75	7,404
249,97	7,518
250,18	6,735
250,40	14,399
250,61	-3,453
250,83	3,459
251,04	2,741
251,25	5,865
251,47	-3,041
251,68	8,574
251,90	7,296
252,11	11,509
252,33	4,555
252,54	3,863
252,76	7,353
252,97	-1,688
253,18	1,193
253,40	-1,681
253,61	0,359
253,83	6,244
254,04	7,704
254,25	5,136
254,47	0,845
254,68	7,306
254,90	3,220
255,11	2,417
255,33	2,263
255,54	0,448
255,75	5,931
255,97	2,947
256,18	2,754
256,40	-0,527
256,61	4,359
256,82	-3,550
257,04	5,871
257,25	1,811
257,47	3,973
257,68	1,495
257,89	8,448
258,11	5,671
258,32	3,869
258,54	6,643
258,75	11,818
258,96	8,418
259,18	3,495
259,39	-1,824
259,61	7,873
259,82	-0,144
260,03	5,967
260,25	1,034
260,46	3,908
260,68	1,524
260,89	2,622
261,10	3,747
261,32	3,208
261,53	6,033
261,75	2,779
261,96	-0,559
262,17	7,128
262,39	13,862
262,60	5,922
262,81	-0,766
263,03	8,226
263,24	6,831
263,46	-0,018
263,67	2,776
263,88	5,703
264,10	5,785
264,31	-2,424
264,52	5,850
264,74	8,956
264,95	3,435
265,17	4,566
265,38	2,726
265,59	6,655
265,81	6,609
266,02	-0,894
266,23	2,438
266,45	7,074
266,66	8,020
266,87	6,488
267,09	3,284
267,30	4,495
267,52	5,122
267,73	4,823
267,94	3,478
268,16	6,401
268,37	7,127
268,58	1,245
268,80	2,483
269,01	-0,362
269,22	5,617
269,44	6,857
269,65	6,152
269,86	1,162
270,08	4,479
270,29	3,314
270,50	6,295
270,72	7,321
270,93	2,554
271,14	2,796
271,36	2,331
271,57	5,639
271,78	2,737
272,00	5,977
272,21	3,982
272,42	3,833
272,64	4,903
272,85	2,806
273,06	1,722
273,28	3,627
273,49	3,967
273,70	5,570
273,92	6,909
274,13	8,689
274,34	2,433
274,56	5,495
274,77	0,482
274,98	7,229
275,20	3,157
275,41	7,000
275,62	7,666
275,84	4,370
276,05	9,689
276,26	3,828
276,47	-1,289
276,69	4,557
276,90	2,586
277,11	0,854
277,33	3,696
277,54	3,152
277,75	4,622
277,97	0,705
278,18	4,219
278,39	8,242
278,61	1,940
278,82	3,224
279,03	3,076
279,24	2,723
279,46	0,650
279,67	3,758
279,88	1,600
280,10	5,866
280,31	0,018
280,52	1,914
280,73	0,546
280,95	2,498
281,16	6,593
281,37	1,007
281,59	6,094
281,80	10,668
282,01	3,836
282,22	2,478
282,44	2,454
282,65	9,768
282,86	5,718
283,08	4,398
283,29	3,397
283,50	5,336
283,71	0,964
283,93	4,477
284,14	5,701
284,35	2,192
284,56	2,817
284,78	0,659
284,99	5,086
285,20	5,261
285,42	1,384
285,63	4,898
285,84	-0,075
286,05	2,207
286,27	1,761
286,48	1,682
286,69	3,992
286,90	1,585
287,12	1,621
287,33	1,544
287,54	2,069
287,75	1,020
287,97	5,397
288,18	2,911
288,39	0,537
288,60	4,511
288,82	0,156
289,03	0,876
289,24	3,758
289,45	6,880
289,67	4,318
289,88	1,777
290,09	2,992
290,30	3,428
290,52	4,511
290,73	0,742
290,94	3,093
291,15	1,146
291,37	6,231
291,58	3,858
291,79	2,443
292,00	3,878
292,21	1,455
292,43	0,717
292,64	-0,919
292,85	1,809
293,06	4,299
293,28	2,722
293,49	1,677
293,70	6,303
293,91	3,943
294,12	3,088
294,34	5,683
294,55	1,289
294,76	2,199
294,97	4,640
295,19	2,430
295,40	2,143
295,61	5,153
295,82	1,638
296,03	4,861
296,25	1,418
296,46	1,880
296,67	1,022
296,88	-1,783
297,09	6,328
297,31	0,598
297,52	3,346
297,73	2,395
297,94	4,749
298,15	3,965
298,37	3,393
298,58	6,348
298,79	4,602
299,00	3,241
299,21	2,410
299,43	1,618
299,64	6,283
299,85	4,936
300,06	3,480
300,27	2,695
300,49	5,015
300,70	2,965
300,91	1,729
301,12	1,903
301,33	5,581
301,54	1,751
301,76	1,844
301,97	2,742
302,18	2,874
302,39	5,911
302,60	7,314
302,82	2,887
303,03	7,530
303,24	3,515
303,45	4,196
303,66	3,955
303,87	1,873
304,09	6,854
304,30	1,496
304,51	3,038
304,72	3,221
304,93	6,409
305,14	3,850
305,36	0,526
305,57	0,256
305,78	7,559
305,99	1,353
306,20	3,111
306,41	3,479
306,62	1,581
306,84	2,776
307,05	2,534
307,26	2,759
307,47	4,678
307,68	1,981
307,89	3,554
308,11	5,997
308,32	2,183
308,53	3,461
308,74	0,210
308,95	4,496
309,16	4,210
309,37	5,646
309,59	1,427
309,80	1,597
310,01	3,342
310,22	4,203
310,43	0,084
310,64	1,302
310,85	1,327
311,06	0,978
311,28	3,109
311,49	3,572
311,70	5,405
311,91	1,023
312,12	3,330
312,33	1,949
312,54	4,189
312,75	2,644
312,97	-0,778
313,18	4,540
313,39	4,395
313,60	3,203
313,81	4,570
314,02	2,446
314,23	3,122
314,44	1,821
314,65	2,358
314,87	1,293
315,08	1,096
315,29	2,465
315,50	2,881
315,71	3,851
315,92	5,173
316,13	4,520
316,34	4,528
316,55	2,922
316,77	-0,163
316,98	2,673
317,19	2,116
317,40	5,031
317,61	4,505
317,82	2,218
318,03	0,476
318,24	3,220
318,45	4,564
318,66	2,662
318,87	1,186
319,09	3,925
319,30	2,569
319,51	3,921
319,72	5,710
319,93	4,403
320,14	3,520
320,35	4,039
320,56	2,422
320,77	-0,337
320,98	7,697
321,19	2,665
321,40	2,679
321,62	4,265
321,83	4,431
322,04	4,059
322,25	2,834
322,46	6,692
322,67	2,435
322,88	1,395
323,09	2,442
323,30	4,160
323,51	5,679
323,72	3,972
323,93	0,881
324,14	2,264
324,35	1,419
324,56	-0,542
324,77	3,635
324,99	2,438
325,20	-2,263
325,41	2,481
325,62	5,288
325,83	1,370
326,04	2,272
326,25	3,196
326,46	1,493
326,67	3,576
326,88	4,809
327,09	1,402
327,30	2,239
327,51	4,358
327,72	3,583
327,93	5,345
328,14	-0,166
328,35	1,072
328,56	5,667
328,77	4,910
328,98	4,373
329,19	5,905
329,40	3,861
329,61	1,804
329,82	-0,244
330,04	2,334
330,25	-1,878
330,46	2,161
330,67	2,705
330,88	2,258
331,09	1,656
331,30	0,943
331,51	1,735
331,72	2,514
331,93	4,870
332,14	0,580
332,35	6,627
332,56	2,251
332,77	3,670
332,98	-0,879
333,19	2,301
333,40	4,510
333,61	2,672
333,82	6,946
334,03	3,111
334,24	2,606
334,45	5,511
334,66	3,223
334,87	4,840
335,08	1,525
335,29	0,863
335,50	4,888
335,71	0,408
335,92	3,083
336,13	3,680
336,34	-0,630
336,55	4,760
336,76	4,180
336,97	4,129
337,18	1,939
337,39	2,914
337,60	3,817
337,81	1,614
338,02	3,602
338,23	3,778
338,44	2,982
338,65	2,227
338,86	3,928
339,07	0,600
339,28	5,620
339,49	5,104
339,70	0,715
339,91	4,552
340,11	5,548
340,32	1,073
340,53	-0,092
340,74	1,940
340,95	3,239
341,16	4,247
341,37	2,080
341,58	-0,234
341,79	0,921
342,00	2,947
342,21	3,975
342,42	-1,128
342,63	2,495
342,84	-0,890
343,05	4,869
343,26	5,111
343,47	0,213
343,68	0,382
343,89	1,989
344,10	3,206
344,31	3,681
344,52	2,021
344,73	1,013
344,94	4,703
345,14	2,938
345,35	5,810
345,56	5,126
345,77	2,008
345,98	4,789
346,19	1,725
346,40	3,167
346,61	2,718
346,82	3,198
347,03	4,689
347,24	6,998
347,45	2,872
347,66	7,183
347,87	0,975
348,08	6,356
348,28	-1,325
348,49	3,239
348,70	6,483
348,91	3,306
349,12	-0,098
349,33	15,762
349,54	3,243
349,75	4,367
349,96	2,227
350,17	4,790
350,38	2,033
350,59	6,447
350,80	3,140
351,00	3,818
351,21	5,673
351,42	4,817
351,63	3,818
351,84	2,772
352,05	6,271
352,26	4,358
352,47	0,425
352,68	5,171
352,89	7,057
353,09	4,092
353,30	0,438
353,51	6,787
353,72	4,559
353,93	6,095
354,14	-0,076
354,35	3,292
354,56	3,489
354,77	3,069
354,98	0,854
355,18	3,072
355,39	8,318
355,60	3,278
355,81	2,099
356,02	5,071
356,23	3,666
356,44	3,135
356,65	3,246
356,85	8,788
357,06	5,615
357,27	3,954
357,48	2,205
357,69	3,081
357,90	4,113
358,11	3,382
358,32	3,030
358,52	5,211
358,73	2,409
358,94	1,752
359,15	5,673
359,36	5,135
359,57	2,505
359,78	2,938
359,98	4,790
360,19	0,920
360,40	1,632
360,61	3,896
360,82	1,700
361,03	7,170
361,24	5,814
361,44	1,590
361,65	3,559
361,86	3,793
362,07	1,954
362,28	2,964
362,49	3,090
362,70	3,630
362,90	3,535
363,11	1,470
363,32	1,774
363,53	2,216
363,74	5,660
363,95	5,808
364,15	0,989
364,36	3,903
364,57	1,896
364,78	2,750
364,99	2,624
365,20	6,861
365,40	6,450
365,61	2,792
365,82	4,972
366,03	5,698
366,24	3,371
366,45	2,859
366,65	3,869
366,86	3,367
367,07	4,291
367,28	3,613
367,49	6,964
367,69	5,402
367,90	5,547
368,11	4,055
368,32	1,779
368,53	5,697
368,73	7,961
368,94	1,217
369,15	2,364
369,36	6,424
369,57	1,125
369,78	0,610
369,98	7,220
370,19	8,191
370,40	0,170
370,61	0,825
370,82	4,850
371,02	6,263
371,23	9,660
371,44	4,752
371,65	3,857
371,85	9,277
372,06	1,642
372,27	2,172
372,48	4,553
372,69	1,519
372,89	3,635
373,10	2,598
373,31	5,325
373,52	4,153
373,73	8,720
373,93	2,247
374,14	2,585
374,35	9,510
374,56	6,801
374,76	5,360
374,97	3,836
375,18	3,851
375,39	0,450
375,60	4,586
375,80	3,935
376,01	3,467
376,22	4,907
376,43	3,591
376,63	4,792
376,84	2,518
377,05	5,378
377,26	-0,302
377,46	2,443
377,67	1,653
377,88	7,128
378,09	2,164
378,29	0,050
378,50	0,906
378,71	5,052
378,92	2,551
379,12	0,427
379,33	0,081
379,54	6,244
379,75	4,848
379,95	2,440
380,16	6,141
380,37	8,327
380,58	4,263
380,78	5,592
380,99	3,255
381,20	2,402
381,41	4,755
381,61	6,101
381,82	4,575
382,03	5,674
382,24	3,542
382,44	4,706
382,65	3,172
382,86	4,957
383,06	1,278
383,27	3,694
383,48	4,519
383,69	3,173
383,89	3,450
384,10	5,938
384,31	2,584
384,51	7,891
384,72	1,835
384,93	0,742
385,14	5,020
385,34	4,413
385,55	2,375
385,76	1,387
385,96	5,827
386,17	4,672
386,38	7,503
386,59	7,019
386,79	3,823
387,00	6,940
387,21	4,291
387,41	7,829
387,62	4,192
387,83	4,247
388,03	3,744
388,24	2,717
388,45	2,136
388,66	5,668
388,86	3,039
389,07	3,267
389,28	7,407
389,48	3,685
389,69	3,809
389,90	6,541
390,10	6,956
390,31	5,772
390,52	-0,347
390,72	1,029
390,93	6,681
391,14	1,381
391,34	6,168
391,55	6,928
391,76	8,410
391,96	6,211
392,17	2,735
392,38	6,048
392,58	4,754
392,79	7,133
393,00	2,789
393,20	1,892
393,41	6,334
393,62	1,656
393,82	6,258
394,03	5,092
394,24	3,385
394,44	8,177
394,65	3,634
394,86	4,401
395,06	5,684
395,27	0,019
395,48	1,907
395,68	4,870
395,89	3,653
396,10	4,600
396,30	4,577
396,51	3,011
396,72	12,574
396,92	2,414
397,13	3,102
397,34	0,718
397,54	5,636
397,75	3,848
397,95	2,071
398,16	5,575
398,37	4,875
398,57	3,816
398,78	8,208
398,99	5,552
399,19	3,525
399,40	5,326
399,60	2,919
399,81	4,787
400,02	6,151
400,22	7,735
400,43	5,596
400,64	5,345
400,84	3,880
401,05	4,088
401,25	4,398
401,46	6,055
401,67	0,849
401,87	1,578
402,08	4,093
402,29	-0,662
402,49	7,480
402,70	6,204
402,90	2,852
403,11	4,232
403,32	4,728
403,52	3,956
403,73	1,435
403,93	8,043
404,14	10,241
404,35	1,801
404,55	2,269
404,76	1,390
404,96	6,088
405,17	5,425
405,38	6,930
405,58	2,743
405,79	5,201
405,99	8,363
406,20	5,835
406,40	0,020
406,61	7,073
406,82	6,556
407,02	7,683
407,23	2,932
407,43	8,596
407,64	2,480
407,85	7,845
408,05	1,776
408,26	10,226
408,46	8,350
408,67	1,739
408,87	1,802
409,08	4,352
409,29	4,553
409,49	9,219
409,70	4,926
409,90	7,125
410,11	3,681
410,31	9,548
410,52	4,728
410,72	2,342
410,93	7,571
411,14	2,425
411,34	0,952
411,55	9,172
411,75	8,243
411,96	4,302
412,16	2,563
412,37	5,279
412,57	5,779
412,78	6,215
412,99	1,914
413,19	0,392
413,40	4,157
413,60	0,895
413,81	6,474
414,01	6,639
414,22	2,939
414,42	8,141
414,63	3,569
414,83	6,480
415,04	7,011
415,24	4,642
415,45	2,283
415,65	2,258
415,86	3,650
416,07	3,167
416,27	3,827
416,48	7,203
416,68	8,896
416,89	0,020
417,09	4,099
417,30	5,404
417,50	6,181
417,71	6,188
417,91	5,515
418,12	7,270
418,32	3,570
418,53	5,833
418,73	4,584
418,94	4,214
419,14	5,885
419,35	-1,104
419,55	5,881
419,76	6,613
419,96	2,237
420,17	5,851
420,37	2,714
420,58	7,473
420,78	2,894
420,99	2,943
421,19	6,431
421,40	6,922
421,60	9,696
421,81	3,174
422,01	4,775
422,22	2,457
422,42	5,315
422,63	3,186
422,83	1,484
423,04	6,709
423,24	7,667
423,45	6,361
423,65	8,539
423,86	6,138
424,06	6,588
424,27	5,614
424,47	1,661
424,67	3,185
424,88	6,617
425,08	3,338
425,29	7,008
425,49	1,663
425,70	2,530
425,90	7,472
426,11	1,802
426,31	2,759
426,52	7,426
426,72	2,903
426,93	3,802
427,13	3,651
427,33	4,279
427,54	7,330
427,74	7,517
427,95	7,669
428,15	4,217
428,36	5,094
428,56	3,597
428,77	7,871
428,97	6,710
429,18	8,543
429,38	3,902
429,58	5,367
429,79	6,433
429,99	5,273
430,20	-0,154
430,40	6,258
430,61	3,109
430,81	3,414
431,01	8,923
431,22	6,104
431,42	8,487
431,63	2,199
431,83	4,717
432,04	4,260
432,24	7,253
432,44	2,989
432,65	2,170
432,85	4,855
433,06	9,844
433,26	6,743
433,47	1,105
433,67	5,137
433,87	4,394
434,08	2,375
434,28	4,459
434,49	4,532
434,69	6,004
434,89	1,229
435,10	3,227
435,30	9,428
435,51	4,387
435,71	3,878
435,91	1,214
436,12	3,418
436,32	3,322
436,53	5,412
436,73	3,497
436,93	7,778
437,14	4,394
437,34	5,083
437,55	4,670
437,75	4,405
437,95	5,473
438,16	2,513
438,36	3,337
438,57	1,405
438,77	3,092
438,97	7,900
439,18	10,513
439,38	4,696
439,58	2,454
439,79	3,053
439,99	5,094
440,20	2,986
440,40	6,168
440,60	8,862
440,81	4,320
441,01	-0,414
441,21	2,660
441,42	4,282
441,62	7,534
441,83	3,371
442,03	1,936
442,23	4,526
442,44	6,555
442,64	5,968
442,84	3,260
443,05	5,402
443,25	1,836
443,45	3,344
443,66	7,285
443,86	2,918
444,06	1,995
444,27	4,204
444,47	5,257
444,67	0,815
444,88	6,073
445,08	0,742
445,28	6,822
445,49	1,703
445,69	2,393
445,90	7,846
446,10	6,719
446,30	5,433
446,51	4,644
446,71	8,212
446,91	9,048
447,12	7,758
447,32	5,103
447,52	7,428
447,72	6,062
447,93	6,991
448,13	1,907
448,33	9,749
448,54	6,407
448,74	2,448
448,94	7,610
449,15	10,718
449,35	2,208
449,55	5,473
449,76	9,873
449,96	6,200
450,16	8,466
450,37	1,566
450,57	6,429
450,77	4,392
450,98	5,556
451,18	5,171
451,38	4,554
451,58	6,271
451,79	8,968
451,99	8,427
452,19	3,454
452,40	5,281
452,60	-0,175
452,80	2,313
453,00	7,007
453,21	9,606
453,41	5,917
453,61	4,035
453,82	9,698
454,02	2,204
454,22	11,723
454,42	8,790
454,63	2,542
454,83	2,864
455,03	6,619
455,24	8,556
455,44	5,957
455,64	7,109
455,84	0,279
456,05	-3,106
456,25	1,084
456,45	6,944
456,65	6,142
456,86	5,813
457,06	8,134
457,26	13,012
457,47	7,316
457,67	3,900
457,87	4,537
458,07	2,974
458,28	7,398
458,48	11,828
458,68	-0,462
458,88	5,556
459,09	10,157
459,29	6,684
459,49	5,314
459,69	7,373
459,90	6,919
460,10	1,355
460,30	6,940
460,50	4,519
460,71	9,172
460,91	4,174
461,11	4,898
461,31	3,315
461,52	8,851
461,72	9,034
461,92	3,880
462,12	12,463
462,32	1,954
462,53	3,782
462,73	1,204
462,93	11,766
463,13	3,806
463,34	5,761
463,54	4,770
463,74	6,901
463,94	3,369
464,14	7,119
464,35	3,262
464,55	11,991
464,75	10,345
464,95	10,518
465,16	4,479
465,36	7,892
465,56	7,052
465,76	6,276
465,96	5,047
466,17	5,480
466,37	3,911
466,57	10,477
466,77	8,572
466,97	5,812
467,18	8,508
467,38	7,452
467,58	8,603
467,78	10,350
467,98	6,956
468,19	8,326
468,39	7,064
468,59	12,114
468,79	8,209
468,99	7,926
469,19	4,774
469,40	9,441
469,60	0,451
469,80	3,635
470,00	10,272
470,20	10,754
470,41	6,021
470,61	7,166
470,81	9,112
471,01	6,802
471,21	6,545
471,41	5,235
471,62	6,026
471,82	0,892
472,02	5,510
472,22	5,558
472,42	4,203
472,62	8,960
472,83	6,780
473,03	7,111
473,23	8,948
473,43	13,195
473,63	5,981
473,83	11,473
474,03	9,206
474,24	13,325
474,44	6,814
474,64	6,864
474,84	7,524
475,04	8,716
475,24	9,976
475,45	8,364
475,65	9,062
475,85	9,661
476,05	6,339
476,25	10,556
476,45	7,783
476,65	13,411
476,85	9,254
477,06	11,372
477,26	6,027
477,46	7,752
477,66	7,013
477,86	13,149
478,06	7,435
478,26	13,126
478,46	4,629
478,67	9,779
478,87	9,294
479,07	8,172
479,27	11,222
479,47	10,659
479,67	7,830
479,87	9,598
480,07	10,899
480,28	9,333
480,48	8,647
480,68	11,437
480,88	10,938
481,08	11,541
481,28	11,281
481,48	13,070
481,68	10,958
481,88	9,804
482,08	9,634
482,29	12,438
482,49	9,457
482,69	12,817
482,89	10,891
483,09	14,372
483,29	12,748
483,49	11,335
483,69	13,200
483,89	11,463
484,09	8,205
484,29	8,632
484,50	10,537
484,70	9,981
484,90	12,228
485,10	10,719
485,30	12,791
485,50	14,361
485,70	11,863
485,90	10,189
486,10	9,058
486,30	13,453
486,50	9,970
486,70	11,282
486,90	12,631
487,10	13,222
487,30	10,692
487,51	10,918
487,71	11,443
487,91	10,846
488,11	13,099
488,31	8,877
488,51	14,438
488,71	11,184
488,91	15,207
489,11	12,669
489,31	13,573
489,51	14,938
489,71	12,668
489,91	13,138
490,11	14,347
490,31	15,357
490,51	14,768
490,71	12,257
490,91	15,768
491,11	13,819
491,31	15,468
491,51	10,694
491,72	14,137
491,92	15,106
492,12	17,317
492,32	15,632
492,52	16,061
492,72	15,370
492,92	15,212
493,12	18,335
493,32	13,140
493,52	12,864
493,72	15,254
493,92	16,442
494,12	16,668
494,32	15,851
494,52	11,747
494,72	16,023
494,92	15,090
495,12	17,688
495,32	17,848
495,52	14,698
495,72	18,036
495,92	19,884
496,12	17,649
496,32	15,351
496,52	15,945
496,72	16,927
496,92	18,409
497,12	17,539
497,32	18,112
497,52	20,143
497,72	22,665
497,92	19,540
498,12	16,424
498,32	18,400
498,52	16,696
498,72	17,458
498,92	16,872
499,12	19,120
499,32	17,385
499,52	19,505
499,72	19,917
499,92	19,651
500,12	20,650
500,32	21,563
500,52	19,279
500,72	22,263
500,91	20,051
501,11	19,005
501,31	16,168
501,51	19,413
501,71	20,515
501,91	22,646
502,11	18,694
502,31	21,440
502,51	22,116
502,71	20,882
502,91	18,947
503,11	21,451
503,31	22,030
503,51	19,810
503,71	19,170
503,91	23,166
504,11	22,820
504,31	21,062
504,51	22,383
504,71	24,798
504,91	23,027
505,10	23,281
505,30	20,813
505,50	21,261
505,70	20,579
505,90	22,134
506,10	20,072
506,30	24,267
506,50	22,752
506,70	24,148
506,90	20,756
507,10	24,829
507,30	22,347
507,50	25,660
507,70	22,807
507,89	24,904
508,09	21,622
508,29	22,876
508,49	21,524
508,69	22,409
508,89	23,711
509,09	21,332
509,29	22,601
509,49	24,429
509,69	25,240
509,89	24,412
510,09	23,032
510,28	23,146
510,48	25,775
510,68	20,606
510,88	24,405
511,08	21,536
511,28	22,661
511,48	24,990
511,68	24,117
511,88	21,595
512,07	23,044
512,27	24,737
512,47	21,488
512,67	21,240
512,87	20,762
513,07	20,509
513,27	20,537
513,47	22,940
513,67	24,333
513,86	25,525
514,06	24,584
514,26	24,277
514,46	25,613
514,66	24,316
514,86	24,205
515,06	27,446
515,26	24,862
515,45	24,084
515,65	20,515
515,85	24,689
516,05	21,236
516,25	24,576
516,45	27,986
516,65	26,917
516,84	25,808
517,04	26,483
517,24	23,968
517,44	24,869
517,64	28,099
517,84	25,966
518,04	26,163
518,23	27,227
518,43	27,415
518,63	24,468
518,83	24,080
519,03	25,277
519,23	26,059
519,42	24,042
519,62	25,827
519,82	24,084
520,02	25,330
520,22	24,376
520,42	24,100
520,61	27,231
520,81	27,798
521,01	26,700
521,21	24,292
521,41	24,347
521,61	27,928
521,80	25,612
522,00	25,195
522,20	27,331
522,40	24,928
522,60	25,292
522,79	24,411
522,99	24,826
523,19	23,036
523,39	26,204
523,59	26,109
523,78	26,343
523,98	24,493
524,18	26,697
524,38	24,572
524,58	26,616
524,77	29,013
524,97	26,165
525,17	26,761
525,37	23,760
525,57	28,572
525,76	24,736
525,96	24,269
526,16	24,222
526,36	21,915
526,56	24,638
526,75	25,130
526,95	25,762
527,15	24,391
527,35	28,160
527,55	25,071
527,74	28,373
527,94	26,216
528,14	25,647
528,34	26,220
528,53	24,616
528,73	25,830
528,93	25,093
529,13	25,680
529,32	25,618
529,52	27,640
529,72	24,653
529,92	25,246
530,12	24,928
530,31	22,390
530,51	26,267
530,71	26,592
530,91	28,711
531,10	24,783
531,30	24,902
531,50	24,691
531,70	27,409
531,89	26,899
532,09	25,658
532,29	21,680
532,49	25,475
532,68	25,805
532,88	25,762
533,08	24,931
533,28	28,342
533,47	26,051
533,67	26,536
533,87	24,663
534,06	31,985
534,26	25,408
534,46	24,949
534,66	24,385
534,85	30,108
535,05	22,623
535,25	25,852
535,45	24,373
535,64	26,613
535,84	24,396
536,04	22,818
536,23	24,120
536,43	27,706
536,63	23,228
536,83	28,083
537,02	24,846
537,22	24,244
537,42	26,921
537,61	24,167
537,81	26,847
538,01	27,148
538,20	24,867
538,40	23,499
538,60	24,729
538,80	23,823
538,99	25,363
539,19	23,764
539,39	22,606
539,58	23,827
539,78	21,984
539,98	22,613
540,17	20,884
540,37	20,636
540,57	19,410
540,76	20,085
540,96	18,589
541,16	21,375
541,36	19,808
541,55	16,439
541,75	16,282
541,95	17,984
542,14	17,498
542,34	16,346
542,54	17,105
542,73	18,282
542,93	17,672
543,13	17,404
543,32	16,066
543,52	16,746
543,72	17,195
543,91	17,495
544,11	17,470
544,31	16,394
544,50	16,733
544,70	18,490
544,89	18,009
545,09	18,865
545,29	19,119
545,48	18,860
545,68	18,047
545,88	18,263
546,07	19,193
546,27	17,975
546,47	19,771
546,66	20,278
546,86	22,601
547,06	20,387
547,25	19,854
547,45	22,555
547,64	21,561
547,84	25,767
548,04	21,763
548,23	24,625
548,43	20,916
548,63	23,916
548,82	24,179
549,02	23,564
549,21	23,752
549,41	22,827
549,61	23,153
549,80	25,374
550,00	24,461
550,20	24,057
550,39	25,187
550,59	24,192
550,78	26,223
550,98	22,670
551,18	25,942
551,37	25,160
551,57	26,172
551,76	25,410
551,96	25,512
552,16	22,438
552,35	25,250
552,55	25,437
552,74	25,981
552,94	26,901
553,14	25,074
553,33	25,100
553,53	24,086
553,72	25,007
553,92	28,246
554,12	24,341
554,31	26,024
554,51	25,952
554,70	24,070
554,90	24,986
555,09	27,220
555,29	26,981
555,49	26,323
555,68	28,279
555,88	24,094
556,07	22,602
556,27	27,186
556,46	25,992
556,66	24,581
556,86	25,663
557,05	27,258
557,25	24,482
557,44	26,177
557,64	25,520
557,83	26,407
558,03	24,419
558,22	24,352
558,42	25,296
558,62	27,092
558,81	26,741
559,01	25,971
559,20	27,130
559,40	24,714
559,59	26,086
559,79	24,976
559,98	27,020
560,18	25,869
560,37	25,432
560,57	25,904
560,76	25,759
560,96	24,621
561,16	27,031
561,35	25,372
561,55	28,230
561,74	25,055
561,94	26,219
562,13	25,574
562,33	27,003
562,52	26,794
562,72	27,316
562,91	23,833
563,11	25,993
563,30	29,391
563,50	26,216
563,69	24,705
563,89	24,435
564,08	29,180
564,28	25,308
564,47	24,036
564,67	26,853
564,86	26,612
565,06	26,474
565,25	27,554
565,45	27,555
565,64	28,630
565,84	26,195
566,03	23,762
566,23	25,550
566,42	26,559
566,62	25,890
566,81	26,676
567,01	29,031
567,20	28,375
567,40	25,842
567,59	25,111
567,79	29,180
567,98	27,984
568,18	26,895
568,37	27,040
568,57	24,765
568,76	28,333
568,96	26,646
569,15	27,160
569,35	27,559
569,54	28,377
569,73	27,904
569,93	24,538
570,12	26,813
570,32	26,717
570,51	26,878
570,71	27,032
570,90	27,000
571,10	25,272
571,29	25,969
571,49	25,583
571,68	27,169
571,87	26,598
572,07	26,321
572,26	25,768
572,46	26,542
572,65	25,845
572,85	24,897
573,04	25,614
573,24	26,633
573,43	27,975
573,62	27,739
573,82	26,392
574,01	26,050
574,21	26,676
574,40	25,272
574,60	24,929
574,79	27,110
574,98	24,309
575,18	25,685
575,37	24,929
575,57	24,929
575,76	26,598
575,96	27,092
576,15	27,205
576,34	25,309
576,54	26,940
576,73	26,564
576,93	25,904
577,12	25,733
577,31	26,003
577,51	25,135
577,70	23,798
577,90	25,675
578,09	24,089
578,28	25,397
578,48	25,240
578,67	26,886
578,87	25,547
579,06	25,082
579,25	27,013
579,45	25,556
579,64	25,020
579,84	26,597
580,03	24,435
580,22	27,629
580,42	24,883
580,61	26,104
580,81	25,199
581,00	26,456
581,19	24,432
581,39	25,375
581,58	25,369
581,77	24,979
581,97	26,714
582,16	25,106
582,35	23,890
582,55	24,816
582,74	26,128
582,94	25,298
583,13	22,908
583,32	25,482
583,52	25,067
583,71	25,161
583,90	24,636
584,10	26,135
584,29	25,926
584,48	25,270
584,68	24,858
584,87	26,645
585,06	26,519
585,26	24,632
585,45	24,769
585,65	27,031
585,84	24,455
586,03	25,257
586,23	23,757
586,42	25,482
586,61	26,466
586,81	24,942
587,00	26,159
587,19	24,547
587,39	26,668
587,58	27,242
587,77	25,575
587,97	26,184
588,16	25,008
588,35	26,353
588,54	25,713
588,74	24,381
588,93	25,399
589,12	25,392
589,32	24,887
589,51	25,862
589,70	24,813
589,90	24,315
590,09	25,864
590,28	27,366
590,48	25,469
590,67	24,617
590,86	26,462
591,06	26,817
591,25	26,962
591,44	26,660
591,63	24,867
591,83	26,556
592,02	27,112
592,21	25,368
592,41	25,392
592,60	25,673
592,79	26,412
592,98	26,159
593,18	25,491
593,37	26,187
593,56	27,158
593,76	27,373
593,95	25,881
594,14	24,269
594,33	26,785
594,53	25,830
594,72	25,970
594,91	27,565
595,10	27,569
595,30	25,470
595,49	26,178
595,68	27,397
595,88	25,955
596,07	26,984
596,26	27,173
596,45	26,001
596,65	26,402
596,84	26,261
597,03	27,388
597,22	27,899
597,42	27,704
597,61	26,728
597,80	27,205
597,99	26,985
598,19	27,445
598,38	27,596
598,57	26,408
598,76	27,605
598,95	28,453
599,15	28,755
599,34	27,801
599,53	28,042
599,72	26,938
599,92	27,862
600,11	27,178
600,30	26,803
600,49	26,058
600,69	26,597
600,88	26,173
601,07	27,999
601,26	27,087
601,45	25,794
601,65	27,056
601,84	27,324
602,03	26,400
602,22	27,887
602,42	29,024
602,61	27,627
602,80	27,706
602,99	27,536
603,18	25,986
603,38	26,984
603,57	26,683
603,76	27,940
603,95	26,015
604,14	27,932
604,34	27,659
604,53	27,946
604,72	27,421
604,91	27,470
605,10	27,778
605,29	27,209
605,49	26,009
605,68	29,349
605,87	27,928
606,06	26,787
606,25	26,602
606,45	27,191
606,64	27,311
606,83	27,886
607,02	27,015
607,21	27,491
607,40	27,602
607,60	25,809
607,79	25,835
607,98	24,483
608,17	25,220
608,36	25,191
608,55	25,323
608,75	25,025
608,94	24,483
609,13	22,259
609,32	21,479
609,51	22,382
609,70	22,116
609,89	23,447
610,09	22,135
610,28	23,764
610,47	22,196
610,66	22,199
610,85	20,097
611,04	22,821
611,23	21,544
611,43	21,583
611,62	20,984
611,81	21,196
612,00	21,000
612,19	21,146
612,38	21,231
612,57	23,761
612,77	23,814
612,96	22,138
613,15	21,414
613,34	24,249
613,53	23,692
613,72	25,124
613,91	25,001
614,10	24,579
614,29	26,966
614,49	23,235
614,68	23,646
614,87	26,072
615,06	26,942
615,25	24,849
615,44	27,378
615,63	25,364
615,82	24,423
616,01	24,406
616,21	25,442
616,40	27,429
616,59	27,350
616,78	27,173
616,97	27,406
617,16	26,613
617,35	27,606
617,54	25,827
617,73	28,291
617,92	26,333
618,11	27,712
618,31	25,355
618,50	27,108
618,69	26,276
618,88	26,224
619,07	25,721
619,26	26,260
619,45	25,606
619,64	25,303
619,83	26,630
620,02	24,578
620,21	27,476
620,40	26,756
620,59	25,331
620,78	25,595
620,97	26,816
621,17	26,575
621,36	26,702
621,55	27,218
621,74	26,461
621,93	26,650
622,12	27,164
622,31	26,350
622,50	26,127
622,69	29,091
622,88	26,420
623,07	26,559
623,26	26,478
623,45	28,341
623,64	25,331
623,83	26,330
624,02	26,392
624,21	26,687
624,40	27,330
624,59	25,826
624,78	26,942
624,97	29,424
625,16	24,857
625,35	25,923
625,54	26,278
625,73	26,347
625,92	25,589
626,12	27,466
626,31	28,746
626,50	27,175
626,69	26,908
626,88	23,894
627,07	27,913
627,26	26,411
627,45	25,870
627,64	25,270
627,83	27,379
628,02	25,780
628,21	26,718
628,40	26,215
628,59	28,040
628,78	25,696
628,97	27,339
629,16	24,728
629,35	25,215
629,54	27,906
629,73	25,001
629,92	25,335
630,10	27,454
630,29	26,167
630,48	27,085
630,67	24,780
630,86	25,644
631,05	27,384
631,24	27,051
631,43	25,188
631,62	27,143
631,81	27,758
632,00	26,617
632,19	26,787
632,38	26,613
632,57	27,107
632,76	27,468
632,95	26,018
633,14	28,368
633,33	26,565
633,52	26,815
633,71	28,010
633,90	24,282
634,09	26,989
634,28	27,395
634,47	26,566
634,66	26,470
634,85	27,571
635,04	27,893
635,22	28,002
635,41	26,686
635,60	28,285
635,79	28,246
635,98	26,166
636,17	27,672
636,36	27,180
636,55	27,530
636,74	25,145
636,93	26,945
637,12	26,908
637,31	26,543
637,50	25,355
637,69	27,667
637,87	28,257
638,06	26,178
638,25	27,053
638,44	27,765
638,63	25,388
638,82	27,700
639,01	27,376
639,20	28,278
639,39	28,877
639,58	26,433
639,77	28,685
639,95	25,621
640,14	28,047
640,33	26,214
640,52	26,605
640,71	27,764
640,90	26,696
641,09	29,299
641,28	25,418
641,47	27,938
641,66	27,658
641,84	27,503
642,03	25,749
642,22	27,388
642,41	28,980
642,60	26,886
642,79	26,674
642,98	28,131
643,17	26,750
643,35	25,827
643,54	26,606
643,73	28,635
643,92	28,411
644,11	27,036
644,30	26,647
644,49	27,690
644,67	28,327
644,86	25,526
645,05	28,340
645,24	28,725
645,43	26,935
645,62	26,393
645,81	27,797
645,99	28,801
646,18	27,222
646,37	23,909
646,56	27,106
646,75	30,653
646,94	29,048
647,13	27,833
647,31	25,488
647,50	28,226
647,69	28,749
647,88	29,523
648,07	26,521
648,26	30,841
648,44	25,833
648,63	26,211
648,82	26,535
649,01	28,074
649,20	26,343
649,38	28,972
649,57	28,057
649,76	26,264
649,95	28,328
650,14	26,580
650,33	26,822
650,51	27,174
650,70	28,308
650,89	27,462
651,08	26,744
651,27	28,376
651,45	26,110
651,64	26,757
651,83	27,537
652,02	26,826
652,21	27,556
652,39	29,501
652,58	28,899
652,77	27,267
652,96	27,477
653,15	26,751
653,33	26,527
653,52	27,853
653,71	28,999
653,90	27,870
654,09	28,055
654,27	27,546
654,46	31,227
654,65	28,796
654,84	27,200
655,02	27,915
655,21	29,478
655,40	29,359
655,59	27,302
655,77	28,452
655,96	27,317
656,15	29,189
656,34	29,661
656,53	28,436
656,71	29,127
656,90	28,813
657,09	28,659
657,28	29,700
657,46	27,625
657,65	27,545
657,84	27,215
658,03	29,392
658,21	28,348
658,40	27,002
658,59	28,685
658,78	28,951
658,96	28,670
659,15	27,509
659,34	26,848
659,52	29,342
659,71	27,864
659,90	25,196
660,09	28,122
660,27	26,023
660,46	29,382
660,65	25,889
660,84	26,580
661,02	26,054
661,21	28,564
661,40	27,809
661,58	27,938
661,77	28,072
661,96	25,949
662,15	26,837
662,33	27,624
662,52	26,120
662,71	27,391
662,89	26,983
663,08	27,917
663,27	27,326
663,45	26,448
663,64	27,513
663,83	25,318
664,02	25,419
664,20	28,537
664,39	26,522
664,58	27,348
664,76	27,936
664,95	29,135
665,14	26,163
665,32	26,027
665,51	27,841
665,70	28,171
665,88	30,064
666,07	27,217
666,26	28,560
666,44	29,794
666,63	26,321
666,82	28,727
667,00	26,372
667,19	26,863
667,38	27,803
667,56	29,083
667,75	27,156
667,94	29,137
668,12	24,053
668,31	26,790
668,50	27,744
668,68	27,395
668,87	26,462
669,06	27,744
669,24	27,799
669,43	25,427
669,62	27,449
669,80	25,392
669,99	27,288
670,18	26,803
670,36	26,550
670,55	27,169
670,74	28,125
670,92	26,654
671,11	27,579
671,29	26,337
671,48	26,594
671,67	26,922
671,85	27,519
672,04	26,435
672,23	25,957
672,41	28,072
672,60	28,165
672,78	26,857
672,97	27,722
673,16	27,656
673,34	27,129
673,53	26,768
673,71	27,399
673,90	28,661
674,09	27,053
674,27	25,992
674,46	26,010
674,64	29,868
674,83	28,134
675,02	24,084
675,20	27,819
675,39	26,524
675,57	27,878
675,76	26,628
675,95	28,560
676,13	28,708
676,32	26,869
676,50	26,999
676,69	26,026
676,88	25,465
677,06	27,588
677,25	27,725
677,43	30,198
677,62	27,254
677,80	26,525
677,99	28,717
678,18	28,279
678,36	29,142
678,55	25,569
678,73	25,931
678,92	28,451
679,10	27,186
679,29	27,276
679,48	26,014
679,66	27,401
679,85	26,521
680,03	27,485
680,22	26,700
680,40	25,936
680,59	25,765
680,77	27,408
680,96	27,777
681,15	27,412
681,33	27,457
681,52	27,805
681,70	27,263
681,89	29,433
682,07	28,891
682,26	26,809
682,44	26,596
682,63	27,442
682,81	28,377
683,00	27,465
683,18	25,793
683,37	28,064
683,55	27,199
683,74	26,466
683,92	29,870
684,11	27,424
684,29	27,408
684,48	25,999
684,67	26,768
684,85	27,542
685,04	26,390
685,22	27,400
685,41	26,290
685,59	27,312
685,78	26,201
685,96	25,806
686,15	28,330
686,33	26,408
686,52	26,850
686,70	27,200
686,89	27,698
687,07	27,786
687,26	28,703
687,44	27,171
687,62	26,517
687,81	27,429
687,99	25,964
688,18	26,473
688,36	26,702
688,55	26,668
688,73	26,858
688,92	26,200
689,10	26,334
689,29	27,816
689,47	29,061
689,66	27,014
689,84	28,471
690,03	26,442
690,21	26,507
690,40	26,836
690,58	27,242
690,76	26,025
690,95	28,281
691,13	27,144
691,32	27,311
691,50	28,365
691,69	28,246
691,87	25,918
692,06	26,485
692,24	25,775
692,43	26,832
692,61	26,902
692,79	26,279
692,98	26,049
693,16	29,017
693,35	26,552
693,53	27,054
693,72	27,032
693,90	28,419
694,08	26,836
694,27	25,484
694,45	28,436
694,64	29,093
694,82	26,849
695,01	26,950
695,19	26,329
695,37	26,744
695,56	27,216
695,74	27,759
695,93	28,473
696,11	27,153
696,29	26,974
696,48	27,128
696,66	28,329
696,85	27,694
697,03	26,010
697,21	28,572
697,40	28,024
697,58	27,008
697,77	26,143
697,95	29,001
698,13	27,728
698,32	27,455
698,50	27,771
698,69	26,900
698,87	27,378
699,05	27,066
699,24	24,987
699,42	27,247
699,60	25,107
699,79	25,521
699,97	26,526
700,16	24,981
700,34	27,942
700,52	26,740
700,71	27,167
700,89	26,791
701,07	27,004
701,26	27,568
701,44	26,811
701,63	25,703
701,81	28,184
701,99	28,225
702,18	26,979
702,36	25,960
702,54	28,053
702,73	25,560
702,91	27,328
703,09	26,085
703,28	27,216
703,46	26,540
703,64	26,795
703,83	26,689
704,01	26,172
704,19	27,378
704,38	25,976
704,56	25,961
704,74	27,843
704,93	25,642
705,11	27,877
705,29	27,612
705,48	29,731
705,66	24,930
705,84	26,903
706,03	24,725
706,21	27,014
706,39	26,651
706,58	26,430
706,76	26,202
706,94	26,863
707,12	27,480
707,31	26,114
707,49	25,833
707,67	26,555
707,86	27,489
708,04	26,934
708,22	26,523
708,41	27,082
708,59	27,560
708,77	25,105
708,95	28,114
709,14	31,041
709,32	26,183
709,50	26,001
709,69	25,299
709,87	26,829
710,05	27,574
710,23	25,931
710,42	25,293
710,60	25,765
710,78	27,828
710,97	25,906
711,15	26,623
711,33	27,595
711,51	26,157
711,70	24,937
711,88	25,968
712,06	27,435
712,24	27,119
712,43	27,142
712,61	25,051
712,79	25,356
712,97	25,131
713,16	28,586
713,34	26,545
713,52	27,262
713,70	26,199
713,89	27,081
714,07	26,792
714,25	26,530
714,43	28,507
714,62	24,906
714,80	26,639
714,98	25,705
715,16	26,516
715,35	25,494
715,53	25,828
715,71	27,357
715,89	29,295
716,07	27,111
716,26	30,652
716,44	28,009
716,62	27,374
716,80	27,825
716,99	27,885
717,17	28,677
717,35	27,302
717,53	26,660
717,71	25,603
717,90	28,063
718,08	27,016
718,26	24,231
718,44	26,831
718,62	27,920
718,81	27,567
718,99	27,184
719,17	26,376
719,35	28,192
719,53	25,847
719,72	25,097
719,90	27,567
720,08	26,025
720,26	27,714
720,44	26,294
720,62	26,968
720,81	26,034
720,99	27,966
721,17	27,134
721,35	28,359
721,53	27,377
721,72	29,171
721,90	27,559
722,08	28,078
722,26	28,471
722,44	24,862
722,62	26,912
722,81	26,584
722,99	25,955
723,17	25,964
723,35	27,490
723,53	28,956
723,71	30,585
723,89	28,960
724,08	26,136
724,26	26,043
724,44	26,382
724,62	27,661
724,80	25,623
724,98	27,330
725,16	29,536
725,35	28,682
725,53	24,660
725,71	26,342
725,89	28,220
726,07	28,164
726,25	28,850
726,43	26,287
726,61	27,756
726,80	27,414
726,98	26,373
727,16	26,397
727,34	26,780
727,52	26,805
727,70	26,224
727,88	25,974
728,06	26,359
728,25	26,319
728,43	26,868
728,61	25,285
728,79	27,457
728,97	26,006
729,15	27,135
729,33	28,209
729,51	27,531
729,69	27,799
729,87	28,970
730,06	26,959
730,24	26,686
730,42	28,875
730,60	26,202
730,78	27,398
730,96	25,532
731,14	28,485
731,32	26,228
731,50	26,540
731,68	27,863
731,86	27,245
732,04	27,363
732,22	25,166
732,41	29,973
732,59	28,340
732,77	28,774
732,95	28,013
733,13	28,458
733,31	26,305
733,49	23,386
733,67	28,066
733,85	26,646
734,03	26,023
734,21	27,821
734,39	25,801
734,57	27,164
734,75	27,925
734,93	25,420
735,11	26,126
735,29	25,681
735,47	27,690
735,65	26,903
735,84	25,408
736,02	28,040
736,20	30,280
736,38	26,915
736,56	26,030
736,74	26,970
736,92	28,491
737,10	26,863
737,28	27,965
737,46	27,696
737,64	26,390
737,82	24,712
738,00	27,643
738,18	28,400
738,36	28,105
738,54	25,706
738,72	24,608
738,90	27,232
739,08	27,745
739,26	23,810
739,44	25,890
739,62	27,573
739,80	27,112
739,98	27,196
740,16	26,510
740,34	27,389
740,52	29,662
740,70	28,299
740,88	26,763
741,06	26,761
741,24	27,909
741,42	27,445
741,60	25,787
741,78	28,409
741,96	28,065
742,14	26,086
742,32	26,400
742,50	28,273
742,68	26,979
742,86	26,652
743,04	25,846
743,21	27,366
743,39	27,892
743,57	27,447
743,75	26,486
743,93	25,973
744,11	24,680
744,29	27,479
744,47	27,391
744,65	25,984
744,83	26,090
745,01	26,539
745,19	26,608
745,37	29,490
745,55	27,670
745,73	28,601
745,91	27,866
746,09	27,555
746,27	26,451
746,45	25,453
746,62	27,926
746,80	25,048
746,98	27,921
747,16	26,375
747,34	26,713
747,52	27,412
747,70	28,268
747,88	26,708
748,06	26,489
748,24	26,407
748,42	28,888
748,60	27,199
748,78	26,947
748,95	28,081
749,13	30,000
749,31	27,048
749,49	26,289
749,67	28,182
749,85	29,194
750,03	26,680
750,21	26,700
750,39	28,190
750,57	30,965
750,74	27,858
750,92	25,965
751,10	28,097
751,28	26,432
751,46	27,323
751,64	27,273
751,82	26,721
752,00	25,556
752,17	27,782
752,35	25,893
752,53	26,572
752,71	28,555
752,89	27,281
753,07	27,735
753,25	28,467
753,43	26,310
753,60	28,112
753,78	25,630
753,96	27,509
754,14	26,380
754,32	27,081
754,50	28,083
754,68	27,805
754,85	27,775
755,03	26,901
755,21	28,195
755,39	29,436
755,57	25,780
755,75	26,673
755,92	25,732
756,10	27,667
756,28	27,117
756,46	28,123
756,64	27,249
756,82	26,936
756,99	29,722
757,17	25,705
757,35	26,345
757,53	29,576
757,71	29,314
757,89	27,357
758,06	26,938
758,24	28,368
758,42	28,828
758,60	27,392
758,78	27,240
758,95	27,256
759,13	28,311
759,31	26,057
759,49	26,506
759,67	27,099
759,84	27,715
760,02	27,834
760,20	27,776
760,38	27,407
760,56	26,362
760,73	28,193
760,91	29,222
761,09	26,282
761,27	25,585
761,45	27,378
761,62	26,655
761,80	26,685
761,98	28,214
762,16	26,995
762,33	25,419
762,51	28,852
762,69	27,812
762,87	25,959
763,05	27,685
763,22	26,345
763,40	26,876
763,58	26,481
763,76	26,730
763,93	28,292
764,11	29,136
764,29	24,455
764,47	28,146
764,64	26,182
764,82	30,377
765,00	25,609
765,18	27,005
765,35	26,099
765,53	28,835
765,71	26,287
765,89	25,583
766,06	26,513
766,24	25,134
766,42	27,294
766,60	26,483
766,77	26,565
766,95	26,029
767,13	26,436
767,30	26,650
767,48	27,689
767,66	25,256
767,84	26,222
768,01	25,535
768,19	27,180
768,37	27,288
768,54	27,154
768,72	27,278
768,90	28,037
769,08	28,815
769,25	27,501
769,43	28,594
769,61	25,544
769,78	27,293
769,96	25,006
770,14	27,665
770,31	29,123
770,49	29,196
770,67	27,500
770,85	25,998
771,02	26,764
771,20	28,465
771,38	28,848
771,55	28,024
771,73	26,846
771,91	26,644
772,08	29,274
772,26	28,934
772,44	26,621
772,61	27,330
772,79	28,308
772,97	28,060
773,14	25,864
773,32	26,534
773,50	27,750
773,67	27,161
773,85	28,460
774,03	28,019
774,20	28,463
774,38	28,470
774,56	25,808
774,73	29,092
774,91	25,917
775,09	27,076
775,26	31,112
775,44	28,948
775,61	29,123
775,79	26,127
775,97	27,216
776,14	26,627
776,32	28,224
776,50	26,499
776,67	27,906
776,85	28,566
777,03	23,980
777,20	28,575
777,38	28,321
777,55	28,038
777,73	26,525
777,91	26,272
778,08	28,990
778,26	26,326
778,43	27,013
778,61	24,900
778,79	26,778
778,96	27,415
779,14	27,893
779,32	27,417
779,49	28,252
779,67	30,995
779,84	27,976
780,02	28,027
780,20	24,774
780,37	27,978
780,55	23,331
780,72	30,575
780,90	28,682
781,07	27,264
781,25	28,536
781,43	27,467
781,60	27,486
781,78	28,629
781,95	27,747
782,13	27,837
782,30	28,671
782,48	28,952
782,66	26,774
782,83	24,840
783,01	32,499
783,18	29,211
783,36	31,295
783,53	28,096
783,71	27,092
783,89	25,993
784,06	27,732
784,24	27,341
784,41	29,911
784,59	28,215
784,76	28,015
784,94	28,846
785,11	27,917
785,29	27,695
785,46	25,821
785,64	27,419
785,82	25,956
785,99	27,812
786,17	26,331
786,34	24,902
786,52	29,558
786,69	29,592
786,87	25,091
787,04	27,995
787,22	24,869
787,39	26,333
787,57	29,938
787,74	28,339
787,92	29,990
788,09	28,514
788,27	28,247
788,44	26,242
788,62	27,423
788,79	30,475
788,97	27,528
789,14	27,246
789,32	25,705
789,49	29,860
789,67	27,089
789,84	28,972
790,02	27,695
790,19	27,447
790,37	27,248
790,54	29,257
790,72	31,603
790,89	30,005
791,07	27,739
791,24	26,422
791,42	28,519
791,59	25,730
791,77	29,080
791,94	27,536
792,12	28,461
792,29	30,012
792,47	28,277
792,64	31,406
792,81	28,568
792,99	28,458
793,16	29,077
793,34	30,076
793,51	26,021
793,69	28,012
793,86	26,582
794,04	27,130
794,21	30,984
794,39	23,761
794,56	26,863
794,73	28,693
794,91	30,794
795,08	28,130
795,26	28,700
795,43	29,058
795,61	30,293
795,78	28,224
795,95	29,439
796,13	27,264
796,30	28,869
796,48	26,540
796,65	29,065
796,83	30,625
797,00	32,023
797,17	28,500
797,35	27,940
797,52	29,161
797,70	33,011
797,87	28,379
798,04	23,126
798,22	29,061
798,39	27,371
798,57	30,220
798,74	27,445
798,91	27,368
799,09	29,119
799,26	31,994
799,44	28,365
799,61	28,872
799,78	26,310
799,96	30,777
800,13	26,588
800,31	28,075
800,48	29,767
800,65	28,903
800,83	28,122
801,00	28,374
801,17	28,563
801,35	29,215
801,52	25,077
801,70	28,769
801,87	31,273
802,04	28,520
802,22	26,547
802,39	29,441
802,56	29,218
802,74	30,775
802,91	29,268
803,08	28,187
803,26	27,586
803,43	32,528
803,61	30,678
803,78	29,408
803,95	26,719
804,13	31,970
804,30	30,084
804,47	31,784
804,65	30,834
804,82	30,654
804,99	30,306
805,17	29,660
805,34	34,696
805,51	31,293
805,69	25,517
805,86	28,502
806,03	31,401
806,21	32,524
806,38	29,842
806,55	32,405
806,72	31,457
806,90	31,021
807,07	27,424
807,24	29,128
807,42	28,635
807,59	30,042
807,76	26,223
807,94	27,411
808,11	34,145
808,28	31,951
808,45	30,023
808,63	31,802
808,80	31,167
808,97	30,107
809,15	26,623
809,32	29,770
809,49	27,191
809,67	29,079
809,84	29,700
810,01	26,286
810,18	36,712
810,36	28,906
810,53	31,857
810,70	31,469
810,87	31,138
811,05	26,437
811,22	31,084
811,39	32,929
811,57	33,672
811,74	32,992
811,91	25,398
812,08	29,356
812,26	29,956
812,43	31,359
812,60	32,867
812,77	28,796
812,95	29,992
813,12	31,880
813,29	25,322
813,46	32,078
813,64	30,026
813,81	29,532
813,98	27,097
814,15	30,370
814,32	28,392
814,50	31,500
814,67	31,068
814,84	26,573
815,01	28,611
815,19	28,509
815,36	28,186
815,53	31,187
815,70	28,995
815,87	28,829
816,05	30,555
816,22	30,672
816,39	31,617
816,56	34,678
816,74	29,979
816,91	24,672
817,08	32,650
817,25	35,294
817,42	29,616
817,60	31,784
817,77	28,164
817,94	30,048
818,11	32,041
818,28	30,720
818,45	32,921
818,63	26,841
818,80	26,799
818,97	23,920
819,14	36,854
819,31	36,661
819,49	31,852
819,66	30,721
819,83	30,991
820,00	30,831
820,17	27,601
820,34	30,224
820,52	32,887
820,69	34,490
820,86	30,378
821,03	30,414
821,20	29,972
821,37	29,745
821,55	21,811
821,72	29,698
821,89	33,096
822,06	37,680
822,23	29,273
822,40	31,342
822,57	32,322
822,75	33,330
822,92	30,501
823,09	27,988
823,26	30,818
823,43	32,220
823,60	31,909
823,77	32,019
823,94	27,908
824,12	36,449
824,29	26,702
824,46	28,197
824,63	37,732
824,80	33,068
824,97	30,187
825,14	33,540
825,31	35,435
825,49	33,266
825,66	30,051
825,83	27,043
826,00	32,830
826,17	37,276
826,34	32,769
826,51	29,859
826,68	28,685
826,85	37,350
827,02	30,779
827,20	33,737
827,37	31,291
827,54	32,240
827,71	29,221
827,88	32,675
828,05	34,944
828,22	30,127
828,39	36,304
828,56	33,329
828,73	33,814
828,90	39,492
829,07	27,334
829,25	32,932
829,42	37,838
829,59	26,034
829,76	32,458
829,93	29,134
830,10	32,410
830,27	29,972
830,44	31,102
830,61	33,999
830,78	40,912
830,95	34,973
831,12	29,045
831,29	28,156
831,46	31,109
831,63	28,223
831,80	31,071
831,97	26,499
832,14	37,791
832,31	36,861
832,48	26,008
832,65	34,316
832,83	40,401
833,00	29,203
833,17	31,126
833,34	39,588
833,51	33,182
833,68	38,928
833,85	38,551
834,02	26,670
834,19	30,152
834,36	39,008
834,53	26,296
834,70	31,339
834,87	39,875
835,04	34,550
835,21	36,958
835,38	31,666
835,55	30,548
835,72	37,715
835,89	28,791
836,06	38,090
836,23	43,521
836,40	30,934
836,57	38,470
836,74	32,974
836,91	32,501
837,08	42,463
837,25	31,837
837,42	25,841
837,59	29,340
837,76	35,343
837,93	30,616
838,09	28,673
838,26	40,054
838,43	45,767
838,60	33,199
838,77	33,460
838,94	43,659
839,11	27,884
839,28	35,806
839,45	36,313
839,62	34,726
839,79	30,649
839,96	31,761
840,13	37,118
840,30	34,234
840,47	29,839
840,64	33,972
840,81	37,924
840,98	28,232
841,15	44,602
841,32	23,459
841,48	43,224
841,65	32,849
841,82	33,827
841,99	32,721
842,16	22,933
842,33	37,155
842,50	29,999
842,67	34,329
842,84	34,502
843,01	33,303
843,18	39,162
843,35	31,324
843,52	27,713
843,68	43,006
843,85	38,543
844,02	37,910
844,19	28,143
844,36	43,537
844,53	34,501
844,70	37,549
844,87	37,442
845,04	36,481
845,21	35,218
845,37	38,061
845,54	31,660
845,71	34,801
845,88	44,361
846,05	21,125
846,22	31,617
846,39	36,835
846,56	38,534
846,72	28,950
846,89	27,575
847,06	41,168
847,23	38,643
847,40	25,826
847,57	28,737
847,74	29,313
847,90	44,401
848,07	35,033
848,24	33,295
848,41	39,271
848,58	40,342
848,75	44,121
848,92	31,809
849,08	29,743
849,25	38,058
849,42	31,584
849,59	42,162
849,76	41,628
849,93	33,652
850,09	35,132
850,26	16,820
850,43	45,784
850,60	37,769
850,77	38,111
850,94	37,520
851,10	38,003
851,27	37,079
851,44	22,880
851,61	27,395
851,78	51,503
851,95	35,990
852,11	30,622
852,28	40,279
852,45	37,821
852,62	40,158
852,79	45,125
852,95	27,276
853,12	39,587
853,29	32,839
853,46	37,290
853,63	38,007
853,79	34,948
853,96	25,442
854,13	40,202
854,30	31,055
854,46	57,746
854,63	43,542
854,80	31,281
854,97	29,162
855,14	48,809
855,30	54,563
855,47	30,633
855,64	39,974
855,81	45,529
855,97	41,430
856,14	31,006
856,31	26,616
856,48	40,565
856,65	47,006
856,81	27,051
856,98	33,478
857,15	40,898
857,32	47,282
857,48	22,791
857,65	43,845
857,82	49,200
857,99	46,180
858,15	41,810
858,32	34,742
858,49	33,722
858,65	38,894
858,82	42,544
858,99	34,702
859,16	42,192
859,32	55,991
859,49	22,175
859,66	24,918
859,83	46,667
859,99	39,284
860,16	42,165
860,33	37,852
860,49	45,772
860,66	44,292
860,83	37,570
861,00	50,983
861,16	56,151
861,33	51,604
861,50	22,182
861,66	42,170
861,83	52,816
862,00	37,671
862,16	50,017
862,33	46,988
862,50	60,546
862,67	30,372
862,83	30,111
863,00	52,721
863,17	64,011
863,33	26,836
863,50	33,377
863,67	35,617
863,83	38,284
864,00	48,991
864,17	21,747
864,33	30,042
864,50	52,067
864,67	47,543
864,83	29,062
865,00	37,841
865,17	46,411
865,33	51,192
865,50	19,263
865,67	42,017
865,83	40,261
866,00	70,573
866,17	54,705
866,33	55,349
866,50	58,003
866,66	52,924
866,83	26,765
867,00	48,170
867,16	54,644
867,33	67,187
867,50	8,347
867,66	20,498
867,83	79,249
868,00	60,110
868,16	30,787
868,33	48,739
868,49	41,073
868,66	60,921
868,83	45,153
868,99	30,343
869,16	55,717
869,32	74,425
869,49	33,109
869,66	29,835
869,82	60,936
869,99	62,619
870,15	23,937
870,32	47,815
870,49	57,699
870,65	64,602
870,82	54,301
870,98	49,260
871,15	79,856
871,32	46,667
871,48	15,909
871,65	20,709
871,81	33,465
871,98	48,459
872,15	39,815
872,31	37,734
872,48	53,397
872,64	68,143
872,81	15,051
872,97	50,528
873,14	73,541
873,31	75,629
873,47	48,758
873,64	41,776
873,80	75,655
873,97	63,767
874,13	22,780
874,30	37,431
874,46	65,866
874,63	36,436
874,80	24,193
874,96	17,422
875,13	94,573
875,29	62,087
875,46	73,034
875,62	21,333
875,79	63,506
875,95	61,201
876,12	43,157
876,28	49,760
876,45	48,989
876,61	55,022
876,78	19,522
876,94	30,201
877,11	58,593
877,27	87,856
877,44	26,195
877,60	20,114
877,77	112,201
877,94	82,821
878,10	31,642
878,27	70,145
878,43	88,104
878,60	43,988
878,76	53,906
878,93	13,676
879,09	107,046
879,26	61,711
879,42	64,135
879,58	55,926
879,75	49,279
879,91	104,891
880,08	8,320
880,24	56,471
880,41	78,991
880,57	77,146
880,74	23,502
880,90	50,065
881,07	47,230
881,23	24,493
881,40	43,914
881,56	37,579
881,73	104,042
881,89	51,258
882,06	55,302
882,22	106,489
882,38	118,325
882,55	131,782
882,71	41,309
882,88	43,473
883,04	113,815
883,21	128,038
883,37	61,540
883,54	79,832
883,70	173,255
883,86	68,938
884,03	38,237
884,19	40,180
884,36	-79,524
884,52	205,946
884,69	104,444
884,85	22,529
885,01	155,616
885,18	116,345
885,34	94,128
885,51	-7,257
885,67	64,356
>>>>> Data<<<<< Espectral Procesado Extremo
