Fichero De Datos De SpectraSuite
++++++++++++++++++++++++++++++++++++
Fecha: Wed Apr 22 11:10:56 CEST 2009
Usuario: evoflor
Presente Oscuro Del Espectro: Sí
La Referencia de Presente Del Espectro De: Sí
Muestreados de los componentes de Número de espectros: 1
Espectrómetros: USB4F02353
Tiempo de integración (usec): 500000 (USB4F02353)
Promedio de Espectros Hechos un: 5 (USB4F02353)
El Alisar Del Furgón: 0 (USB4F02353)
Párrafo de de Corregir del la del del de Eléctrica del obscuridad: Sí (USB4F02353)
Estrobo/Lámpara Permitido: No (USB4F02353)
Correct for Detector Non-linearity: No (USB4F02353)
Párrafo de de Corregir del la del del de Externa del luz: No (USB4F02353)
Procesado del espectro de Número de pixeles en: 3648
>>>>> Comienza Data<<<<< Espectral Procesado Del EL
177,79	306,908
178,00	306,908
178,22	306,908
178,44	1355,000
178,66	-183,833
178,88	-29,300
179,09	-45,936
179,31	277,035
179,53	479,241
179,75	40,648
179,96	768,060
180,18	-16,600
180,40	292,341
180,62	315,106
180,83	-167,376
181,05	-417,012
181,27	-79195,000
181,49	-91,946
181,70	349,596
181,92	867,995
182,14	542,154
182,36	106,702
182,58	99,050
182,79	550,424
183,01	69,712
183,23	121,506
183,45	-2,754
183,66	-226,969
183,88	-26,500
184,10	-2159,909
184,32	245,037
184,53	141,756
184,75	-85,322
184,97	27,980
185,18	-160,705
185,40	-341,803
185,62	56,015
185,84	62,871
186,05	167,401
186,27	-168,674
186,49	2353,654
186,71	-91,582
186,92	45,701
187,14	-105,036
187,36	131,064
187,58	89,513
187,79	101,223
188,01	239,250
188,23	43,480
188,45	56,439
188,66	433,906
188,88	-1129,000
189,10	-1025,950
189,31	0,009
189,53	203,641
189,75	304,761
189,97	-145,404
190,18	-77,275
190,40	492,324
190,62	-61,196
190,83	-133,064
191,05	144,507
191,27	172,271
191,49	398,750
191,70	-566,803
191,92	-244,025
192,14	-6,390
192,35	525,186
192,57	2519,857
192,79	113,694
193,01	191,341
193,22	124,011
193,44	-30,708
193,66	66,492
193,87	169,582
194,09	56,806
194,31	161,888
194,53	623,042
194,74	-46,460
194,96	-4,610
195,18	179,347
195,39	-327,691
195,61	-114,766
195,83	-203,467
196,04	86,881
196,26	-307,513
196,48	15,717
196,70	87,664
196,91	127,349
197,13	250,620
197,35	4,545
197,56	590,697
197,78	685,037
198,00	-6,329
198,21	266,481
198,43	-575,552
198,65	96,610
198,86	356,097
199,08	212,443
199,30	18,209
199,51	-146,564
199,73	198,994
199,95	280,681
200,16	363,442
200,38	221,947
200,60	181,020
200,81	423,972
201,03	75,802
201,25	-692,950
201,46	103,605
201,68	76,338
201,90	1963,523
202,11	-212,958
202,33	156,724
202,55	719,937
202,76	-51,482
202,98	213,223
203,20	-160,072
203,41	-426,289
203,63	51,506
203,85	-79195,000
204,06	-35,510
204,28	-95,410
204,50	88,678
204,71	147,871
204,93	-684,040
205,15	157,214
205,36	-273,604
205,58	290,202
205,80	-45,072
206,01	34,376
206,23	192,967
206,45	172,574
206,66	119,353
206,88	93,790
207,10	265,898
207,31	280,126
207,53	341,986
207,75	81,812
207,96	33,545
208,18	-44,531
208,39	-13,423
208,61	2828,429
208,83	-364,103
209,04	84,786
209,26	-223,940
209,48	282,694
209,69	236,605
209,91	170,253
210,13	24,014
210,34	156,889
210,56	117,019
210,77	-1112,559
210,99	131,375
211,21	2964,412
211,42	-64,372
211,64	-26,765
211,86	210,630
212,07	202,883
212,29	121,595
212,50	97,447
212,72	301,135
212,94	0,784
213,15	131,727
213,37	125,503
213,58	133,714
213,80	-2410,536
214,02	11646,765
214,23	270,976
214,45	227,197
214,67	-21,890
214,88	-126,829
215,10	-286,787
215,31	9,814
215,53	-151,375
215,75	62,600
215,96	1436,615
216,18	-342,324
216,39	205,278
216,61	326,190
216,83	172,746
217,04	849,382
217,26	84,185
217,47	194,396
217,69	260,284
217,91	46,405
218,12	-27895,000
218,34	79,467
218,55	217,228
218,77	43,966
218,99	120,837
219,20	-48,122
219,42	207,157
219,63	-9,584
219,85	112,351
220,06	-117,712
220,28	150,137
220,50	48,919
220,71	100,073
220,93	2071,604
221,14	-1511,950
221,36	-104,962
221,58	3,282
221,79	237,518
222,01	449,957
222,22	349,309
222,44	-657,360
222,65	68,029
222,87	69,196
223,09	116,226
223,30	104,774
223,52	91,312
223,73	189,274
223,95	-25,359
224,16	64,938
224,38	249,514
224,60	81,878
224,81	-25,070
225,03	80,281
225,24	150,212
225,46	-22,434
225,67	-27,998
225,89	71,852
226,10	273,780
226,32	568,760
226,54	8,827
226,75	55,728
226,97	98,155
227,18	100,072
227,40	57,281
227,61	4,420
227,83	17,927
228,04	99,332
228,26	70,474
228,47	56,429
228,69	75,085
228,91	113,500
229,12	79,408
229,34	43,001
229,55	14,733
229,77	17,944
229,98	3,883
230,20	4,597
230,41	22,631
230,63	80,044
230,84	-19,851
231,06	24,105
231,27	8,457
231,49	37,128
231,71	2,455
231,92	26,621
232,14	14,679
232,35	49,576
232,57	39,460
232,78	12,838
233,00	37,197
233,21	27,049
233,43	18,431
233,64	10,974
233,86	32,376
234,07	16,806
234,29	30,153
234,50	1,635
234,72	29,804
234,93	8,009
235,15	14,676
235,36	7,285
235,58	21,530
235,79	28,787
236,01	7,018
236,22	8,627
236,44	23,732
236,65	16,232
236,87	18,603
237,08	-0,715
237,30	-7,436
237,51	18,285
237,73	-2,050
237,94	2,136
238,16	21,328
238,37	2,611
238,59	4,570
238,80	0,892
239,02	3,734
239,23	17,033
239,45	-8,793
239,66	8,736
239,88	15,664
240,09	4,344
240,31	7,151
240,52	1,245
240,74	12,758
240,95	3,138
241,17	1,637
241,38	-2,219
241,60	7,021
241,81	16,639
242,03	5,375
242,24	4,831
242,46	15,986
242,67	-1,335
242,89	4,824
243,10	13,136
243,32	9,745
243,53	9,272
243,75	5,658
243,96	6,389
244,18	5,750
244,39	4,109
244,60	6,303
244,82	-1,913
245,03	18,790
245,25	3,605
245,46	21,562
245,68	6,003
245,89	16,232
246,11	14,440
246,32	3,910
246,54	0,063
246,75	9,722
246,97	8,889
247,18	19,239
247,39	6,507
247,61	2,415
247,82	0,655
248,04	2,878
248,25	5,186
248,47	12,443
248,68	8,020
248,90	-5,111
249,11	7,392
249,33	13,385
249,54	1,172
249,75	4,332
249,97	1,168
250,18	2,957
250,40	12,581
250,61	-9,538
250,83	0,101
251,04	2,997
251,25	8,561
251,47	-0,101
251,68	6,118
251,90	7,464
252,11	5,951
252,33	-0,916
252,54	1,638
252,76	2,673
252,97	2,095
253,18	0,194
253,40	2,536
253,61	-2,661
253,83	10,163
254,04	5,917
254,25	4,930
254,47	1,913
254,68	4,192
254,90	1,908
255,11	7,393
255,33	7,991
255,54	1,455
255,75	0,939
255,97	3,144
256,18	0,220
256,40	4,740
256,61	1,545
256,82	-3,529
257,04	7,008
257,25	0,657
257,47	7,531
257,68	-0,715
257,89	8,163
258,11	6,501
258,32	6,104
258,54	7,248
258,75	6,150
258,96	8,519
259,18	4,615
259,39	1,331
259,61	7,558
259,82	1,543
260,03	4,241
260,25	2,428
260,46	4,005
260,68	0,292
260,89	0,840
261,10	3,239
261,32	4,798
261,53	2,498
261,75	3,076
261,96	1,497
262,17	5,592
262,39	9,226
262,60	2,522
262,81	-2,326
263,03	6,332
263,24	4,170
263,46	-3,157
263,67	3,252
263,88	2,329
264,10	4,589
264,31	1,742
264,52	3,104
264,74	6,147
264,95	4,856
265,17	0,513
265,38	5,487
265,59	6,250
265,81	3,855
266,02	-0,558
266,23	1,151
266,45	8,247
266,66	9,107
266,87	3,991
267,09	1,909
267,30	4,325
267,52	7,570
267,73	1,474
267,94	4,387
268,16	4,888
268,37	2,015
268,58	4,193
268,80	1,151
269,01	-0,421
269,22	3,877
269,44	4,545
269,65	3,372
269,86	-0,875
270,08	6,509
270,29	0,568
270,50	5,368
270,72	4,916
270,93	-1,172
271,14	1,534
271,36	3,265
271,57	4,487
271,78	2,640
272,00	6,773
272,21	3,381
272,42	2,832
272,64	4,195
272,85	-0,843
273,06	0,038
273,28	5,689
273,49	-0,287
273,70	6,731
273,92	1,722
274,13	6,476
274,34	1,353
274,56	4,133
274,77	1,424
274,98	0,943
275,20	1,925
275,41	3,301
275,62	3,580
275,84	3,439
276,05	5,953
276,26	2,362
276,47	1,096
276,69	4,177
276,90	7,983
277,11	1,774
277,33	1,318
277,54	6,161
277,75	1,821
277,97	2,024
278,18	4,331
278,39	3,057
278,61	3,666
278,82	5,217
279,03	3,940
279,24	1,467
279,46	0,964
279,67	3,576
279,88	3,062
280,10	5,253
280,31	1,490
280,52	2,655
280,73	1,351
280,95	4,558
281,16	6,734
281,37	2,203
281,59	7,046
281,80	6,665
282,01	2,512
282,22	0,062
282,44	2,880
282,65	7,502
282,86	5,609
283,08	3,772
283,29	1,829
283,50	3,457
283,71	6,510
283,93	3,220
284,14	8,701
284,35	0,347
284,56	3,670
284,78	1,865
284,99	3,953
285,20	7,360
285,42	2,552
285,63	3,534
285,84	3,477
286,05	0,791
286,27	4,893
286,48	2,290
286,69	1,812
286,90	2,673
287,12	2,064
287,33	2,122
287,54	2,516
287,75	0,561
287,97	3,767
288,18	4,844
288,39	0,984
288,60	4,151
288,82	2,904
289,03	2,193
289,24	4,030
289,45	4,503
289,67	1,123
289,88	3,124
290,09	2,182
290,30	3,277
290,52	0,298
290,73	2,180
290,94	-1,676
291,15	1,777
291,37	4,413
291,58	3,124
291,79	1,334
292,00	2,398
292,21	2,724
292,43	1,216
292,64	-0,000
292,85	2,089
293,06	3,385
293,28	1,919
293,49	1,531
293,70	5,309
293,91	1,628
294,12	0,336
294,34	-0,079
294,55	2,972
294,76	2,264
294,97	2,337
295,19	0,993
295,40	2,847
295,61	5,215
295,82	2,088
296,03	3,418
296,25	1,327
296,46	1,610
296,67	-0,151
296,88	-0,025
297,09	3,194
297,31	3,353
297,52	3,534
297,73	2,307
297,94	6,771
298,15	2,758
298,37	4,646
298,58	5,308
298,79	4,267
299,00	1,159
299,21	1,866
299,43	2,577
299,64	5,103
299,85	5,511
300,06	0,613
300,27	0,587
300,49	5,050
300,70	3,132
300,91	2,181
301,12	0,820
301,33	5,226
301,54	2,805
301,76	3,368
301,97	1,327
302,18	0,224
302,39	4,751
302,60	3,662
302,82	2,775
303,03	4,264
303,24	3,748
303,45	4,375
303,66	2,320
303,87	2,189
304,09	5,071
304,30	0,607
304,51	2,689
304,72	1,782
304,93	5,457
305,14	4,337
305,36	-0,464
305,57	-0,000
305,78	1,978
305,99	1,222
306,20	4,293
306,41	-1,367
306,62	1,542
306,84	1,873
307,05	0,220
307,26	3,149
307,47	2,971
307,68	1,871
307,89	3,223
308,11	4,021
308,32	-0,247
308,53	1,641
308,74	-0,689
308,95	1,120
309,16	2,538
309,37	6,225
309,59	1,240
309,80	1,954
310,01	2,991
310,22	2,654
310,43	1,531
310,64	3,199
310,85	2,871
311,06	-0,173
311,28	3,800
311,49	5,180
311,70	5,343
311,91	-1,130
312,12	1,492
312,33	2,964
312,54	3,937
312,75	1,545
312,97	0,692
313,18	2,711
313,39	1,266
313,60	2,782
313,81	2,157
314,02	3,372
314,23	4,625
314,44	0,843
314,65	0,459
314,87	2,758
315,08	3,070
315,29	3,077
315,50	3,164
315,71	2,758
315,92	5,403
316,13	5,079
316,34	1,666
316,55	4,717
316,77	-0,152
316,98	1,963
317,19	2,537
317,40	3,549
317,61	5,193
317,82	1,150
318,03	2,753
318,24	2,254
318,45	5,786
318,66	2,819
318,87	0,635
319,09	4,298
319,30	4,515
319,51	4,940
319,72	5,993
319,93	4,339
320,14	2,836
320,35	3,871
320,56	0,869
320,77	-0,352
320,98	7,326
321,19	4,040
321,40	1,061
321,62	5,417
321,83	3,994
322,04	4,577
322,25	1,745
322,46	5,008
322,67	5,439
322,88	3,282
323,09	1,590
323,30	4,828
323,51	3,029
323,72	3,680
323,93	0,893
324,14	1,138
324,35	-1,201
324,56	-2,124
324,77	1,101
324,99	2,719
325,20	-1,316
325,41	2,871
325,62	2,565
325,83	0,655
326,04	0,880
326,25	4,379
326,46	0,752
326,67	3,024
326,88	1,755
327,09	2,587
327,30	4,331
327,51	3,466
327,72	1,749
327,93	4,211
328,14	-0,875
328,35	-1,713
328,56	3,477
328,77	5,411
328,98	4,105
329,19	2,476
329,40	3,488
329,61	2,697
329,82	0,542
330,04	0,501
330,25	2,838
330,46	3,561
330,67	1,164
330,88	1,148
331,09	2,621
331,30	1,247
331,51	0,397
331,72	3,232
331,93	2,348
332,14	1,826
332,35	4,476
332,56	1,916
332,77	3,813
332,98	-0,526
333,19	-1,051
333,40	3,490
333,61	1,657
333,82	4,690
334,03	2,322
334,24	3,429
334,45	4,960
334,66	1,993
334,87	3,658
335,08	0,291
335,29	-0,875
335,50	0,080
335,71	0,865
335,92	3,545
336,13	3,352
336,34	-2,067
336,55	3,128
336,76	3,794
336,97	1,614
337,18	-0,422
337,39	2,638
337,60	1,928
337,81	2,922
338,02	4,189
338,23	0,920
338,44	4,674
338,65	4,662
338,86	3,511
339,07	2,236
339,28	4,374
339,49	0,755
339,70	-1,063
339,91	1,424
340,11	6,044
340,32	-0,760
340,53	0,241
340,74	0,187
340,95	0,983
341,16	3,127
341,37	1,820
341,58	1,854
341,79	4,202
342,00	0,814
342,21	4,275
342,42	1,306
342,63	2,234
342,84	-0,793
343,05	4,040
343,26	4,082
343,47	2,710
343,68	1,974
343,89	0,164
344,10	4,907
344,31	6,895
344,52	2,953
344,73	4,518
344,94	4,799
345,14	3,308
345,35	2,235
345,56	1,464
345,77	1,375
345,98	3,841
346,19	2,449
346,40	3,323
346,61	3,845
346,82	3,464
347,03	-1,070
347,24	1,879
347,45	0,532
347,66	5,996
347,87	1,714
348,08	5,067
348,28	0,684
348,49	4,722
348,70	6,081
348,91	2,918
349,12	1,226
349,33	14,145
349,54	2,540
349,75	5,010
349,96	4,396
350,17	1,715
350,38	1,169
350,59	2,665
350,80	2,820
351,00	6,567
351,21	5,714
351,42	1,846
351,63	4,225
351,84	3,361
352,05	2,114
352,26	2,129
352,47	0,847
352,68	5,839
352,89	5,994
353,09	6,288
353,30	-0,873
353,51	2,367
353,72	5,499
353,93	3,507
354,14	1,171
354,35	3,966
354,56	5,428
354,77	4,464
354,98	-0,927
355,18	3,996
355,39	5,866
355,60	0,058
355,81	4,019
356,02	5,385
356,23	3,940
356,44	2,908
356,65	5,173
356,85	5,380
357,06	6,105
357,27	5,708
357,48	3,958
357,69	6,160
357,90	3,762
358,11	0,290
358,32	3,371
358,52	3,816
358,73	3,161
358,94	3,112
359,15	7,070
359,36	2,194
359,57	2,427
359,78	2,678
359,98	1,591
360,19	-1,054
360,40	0,911
360,61	4,542
360,82	0,887
361,03	4,818
361,24	2,396
361,44	-0,091
361,65	2,906
361,86	1,474
362,07	4,150
362,28	-0,447
362,49	1,521
362,70	5,391
362,90	4,854
363,11	0,059
363,32	-0,123
363,53	3,020
363,74	3,538
363,95	4,009
364,15	2,828
364,36	5,698
364,57	6,090
364,78	3,477
364,99	3,223
365,20	3,822
365,40	2,698
365,61	2,863
365,82	2,255
366,03	3,487
366,24	5,639
366,45	3,597
366,65	1,853
366,86	3,655
367,07	3,040
367,28	2,361
367,49	2,761
367,69	4,591
367,90	2,078
368,11	5,443
368,32	1,731
368,53	3,580
368,73	5,629
368,94	1,380
369,15	2,408
369,36	4,311
369,57	1,171
369,78	1,405
369,98	7,957
370,19	6,270
370,40	4,658
370,61	0,062
370,82	0,881
371,02	2,486
371,23	5,358
371,44	3,220
371,65	6,338
371,85	6,982
372,06	0,031
372,27	2,648
372,48	2,709
372,69	-1,251
372,89	0,293
373,10	1,677
373,31	1,553
373,52	1,117
373,73	6,473
373,93	4,032
374,14	0,532
374,35	1,984
374,56	4,959
374,76	1,261
374,97	0,313
375,18	4,400
375,39	3,713
375,60	0,500
375,80	4,695
376,01	2,033
376,22	1,547
376,43	3,485
376,63	2,311
376,84	1,719
377,05	5,860
377,26	2,686
377,46	0,441
377,67	1,764
377,88	2,263
378,09	3,589
378,29	-2,342
378,50	4,270
378,71	5,702
378,92	1,418
379,12	3,435
379,33	2,117
379,54	1,494
379,75	6,117
379,95	2,112
380,16	3,490
380,37	5,282
380,58	2,404
380,78	4,827
380,99	2,412
381,20	1,095
381,41	5,660
381,61	4,910
381,82	3,017
382,03	3,171
382,24	0,577
382,44	2,217
382,65	4,257
382,86	3,348
383,06	2,453
383,27	4,365
383,48	1,878
383,69	3,087
383,89	5,012
384,10	5,184
384,31	-0,296
384,51	4,545
384,72	3,762
384,93	2,598
385,14	2,988
385,34	4,427
385,55	1,767
385,76	1,703
385,96	5,120
386,17	2,508
386,38	4,690
386,59	7,424
386,79	1,279
387,00	3,559
387,21	3,705
387,41	5,207
387,62	2,086
387,83	7,852
388,03	2,778
388,24	-0,866
388,45	5,358
388,66	3,833
388,86	4,732
389,07	2,335
389,28	6,674
389,48	3,195
389,69	2,582
389,90	4,753
390,10	3,469
390,31	7,516
390,52	-2,456
390,72	2,316
390,93	3,911
391,14	2,336
391,34	2,723
391,55	7,437
391,76	7,020
391,96	1,625
392,17	2,877
392,38	6,753
392,58	5,412
392,79	3,187
393,00	0,067
393,20	2,972
393,41	4,046
393,62	1,441
393,82	2,788
394,03	3,171
394,24	3,759
394,44	9,195
394,65	4,043
394,86	4,125
395,06	5,129
395,27	1,448
395,48	5,396
395,68	2,281
395,89	3,029
396,10	3,802
396,30	1,013
396,51	-2,589
396,72	9,123
396,92	1,484
397,13	2,825
397,34	1,299
397,54	2,321
397,75	4,731
397,95	3,096
398,16	5,719
398,37	2,225
398,57	3,078
398,78	4,222
398,99	6,774
399,19	4,851
399,40	6,853
399,60	-1,134
399,81	4,117
400,02	6,536
400,22	3,858
400,43	4,050
400,64	3,329
400,84	2,824
401,05	1,965
401,25	6,055
401,46	5,459
401,67	6,512
401,87	4,115
402,08	2,948
402,29	2,588
402,49	8,778
402,70	6,586
402,90	1,836
403,11	5,836
403,32	5,043
403,52	3,906
403,73	7,185
403,93	9,281
404,14	8,735
404,35	7,164
404,55	5,884
404,76	4,249
404,96	3,270
405,17	4,653
405,38	7,179
405,58	3,841
405,79	10,000
405,99	7,272
406,20	7,527
406,40	4,262
406,61	8,783
406,82	3,195
407,02	5,724
407,23	6,526
407,43	6,362
407,64	5,644
407,85	4,340
408,05	1,791
408,26	10,552
408,46	9,484
408,67	4,351
408,87	5,524
409,08	5,178
409,29	8,730
409,49	5,806
409,70	7,784
409,90	6,757
410,11	6,826
410,31	8,105
410,52	7,011
410,72	7,511
410,93	8,345
411,14	5,904
411,34	4,733
411,55	12,385
411,75	12,320
411,96	8,851
412,16	9,478
412,37	7,609
412,57	9,682
412,78	9,152
412,99	8,130
413,19	6,313
413,40	9,928
413,60	6,374
413,81	7,781
414,01	8,064
414,22	4,414
414,42	7,675
414,63	3,209
414,83	9,445
415,04	10,894
415,24	8,947
415,45	5,292
415,65	11,042
415,86	6,282
416,07	11,552
416,27	9,935
416,48	10,633
416,68	14,388
416,89	6,965
417,09	10,716
417,30	10,614
417,50	12,065
417,71	10,256
417,91	10,660
418,12	8,959
418,32	9,960
418,53	8,671
418,73	9,237
418,94	10,346
419,14	11,666
419,35	5,330
419,55	11,366
419,76	12,797
419,96	8,685
420,17	9,179
420,37	9,323
420,58	17,697
420,78	12,550
420,99	12,168
421,19	15,007
421,40	10,389
421,60	15,360
421,81	10,675
422,01	14,193
422,22	9,570
422,42	13,329
422,63	9,680
422,83	9,066
423,04	14,069
423,24	16,263
423,45	9,638
423,65	13,384
423,86	13,954
424,06	13,313
424,27	9,844
424,47	12,976
424,67	11,827
424,88	14,716
425,08	14,331
425,29	18,574
425,49	9,295
425,70	8,723
425,90	13,777
426,11	14,644
426,31	10,883
426,52	15,457
426,72	13,008
426,93	10,509
427,13	17,884
427,33	12,011
427,54	15,111
427,74	17,072
427,95	16,165
428,15	9,842
428,36	13,143
428,56	14,380
428,77	15,507
428,97	15,141
429,18	16,156
429,38	14,286
429,58	17,861
429,79	16,411
429,99	12,893
430,20	5,905
430,40	18,341
430,61	14,172
430,81	12,020
431,01	17,017
431,22	17,360
431,42	17,069
431,63	13,761
431,83	14,231
432,04	13,746
432,24	17,030
432,44	7,953
432,65	15,574
432,85	14,612
433,06	17,904
433,26	12,378
433,47	10,900
433,67	12,975
433,87	14,991
434,08	13,552
434,28	17,212
434,49	16,517
434,69	16,201
434,89	13,193
435,10	13,927
435,30	15,672
435,51	13,556
435,71	16,276
435,91	13,480
436,12	12,224
436,32	15,175
436,53	16,215
436,73	15,153
436,93	15,414
437,14	13,260
437,34	15,117
437,55	12,825
437,75	15,133
437,95	16,613
438,16	12,928
438,36	17,884
438,57	14,286
438,77	14,875
438,97	15,142
439,18	20,129
439,38	16,862
439,58	11,726
439,79	17,611
439,99	14,692
440,20	19,481
440,40	19,244
440,60	13,069
440,81	17,274
441,01	14,446
441,21	16,875
441,42	14,338
441,62	18,616
441,83	15,063
442,03	13,443
442,23	16,619
442,44	16,667
442,64	18,723
442,84	12,230
443,05	19,299
443,25	15,976
443,45	16,470
443,66	13,343
443,86	15,321
444,06	16,893
444,27	13,795
444,47	17,056
444,67	14,254
444,88	15,931
445,08	17,486
445,28	18,654
445,49	13,047
445,69	13,648
445,90	19,722
446,10	18,967
446,30	18,233
446,51	14,479
446,71	19,189
446,91	20,823
447,12	21,556
447,32	12,221
447,52	13,762
447,72	16,605
447,93	15,308
448,13	14,071
448,33	19,815
448,54	17,222
448,74	14,933
448,94	19,370
449,15	20,384
449,35	15,996
449,55	18,148
449,76	24,497
449,96	14,260
450,16	17,578
450,37	13,505
450,57	20,059
450,77	15,376
450,98	18,448
451,18	19,249
451,38	20,039
451,58	19,202
451,79	15,570
451,99	19,236
452,19	17,354
452,40	16,701
452,60	16,759
452,80	16,273
453,00	16,457
453,21	20,552
453,41	16,660
453,61	17,104
453,82	15,652
454,02	13,091
454,22	24,090
454,42	18,200
454,63	11,749
454,83	15,483
455,03	14,237
455,24	17,873
455,44	16,400
455,64	17,251
455,84	9,378
456,05	9,303
456,25	11,674
456,45	19,552
456,65	17,249
456,86	19,143
457,06	17,917
457,26	19,708
457,47	17,883
457,67	14,440
457,87	11,864
458,07	17,133
458,28	19,524
458,48	20,482
458,68	12,541
458,88	21,238
459,09	17,285
459,29	19,745
459,49	14,216
459,69	14,859
459,90	15,317
460,10	15,523
460,30	19,343
460,50	14,040
460,71	19,552
460,91	13,194
461,11	13,777
461,31	9,553
461,52	19,924
461,72	14,483
461,92	14,875
462,12	22,184
462,32	11,427
462,53	14,970
462,73	11,341
462,93	17,709
463,13	10,301
463,34	12,274
463,54	15,464
463,74	17,329
463,94	15,374
464,14	15,734
464,35	11,095
464,55	18,409
464,75	22,402
464,95	18,205
465,16	13,713
465,36	19,930
465,56	16,264
465,76	15,449
465,96	18,066
466,17	16,596
466,37	8,997
466,57	18,664
466,77	16,267
466,97	16,496
467,18	17,084
467,38	20,538
467,58	18,545
467,78	19,718
467,98	20,767
468,19	18,362
468,39	18,971
468,59	20,888
468,79	19,003
468,99	15,772
469,19	12,970
469,40	20,199
469,60	10,847
469,80	14,690
470,00	18,669
470,20	19,199
470,41	15,697
470,61	18,818
470,81	18,887
471,01	15,030
471,21	16,311
471,41	12,812
471,62	15,807
471,82	13,440
472,02	12,574
472,22	15,528
472,42	16,701
472,62	16,826
472,83	13,522
473,03	16,890
473,23	16,867
473,43	21,352
473,63	14,719
473,83	19,721
474,03	13,915
474,24	17,978
474,44	14,708
474,64	14,773
474,84	11,975
475,04	18,731
475,24	16,971
475,45	11,489
475,65	11,587
475,85	16,948
476,05	11,710
476,25	14,767
476,45	18,048
476,65	19,353
476,85	18,135
477,06	16,408
477,26	13,914
477,46	17,874
477,66	13,055
477,86	17,848
478,06	16,977
478,26	19,442
478,46	15,058
478,67	16,564
478,87	15,968
479,07	14,850
479,27	18,754
479,47	15,367
479,67	11,217
479,87	13,673
480,07	17,239
480,28	14,156
480,48	14,433
480,68	18,456
480,88	18,916
481,08	15,685
481,28	15,970
481,48	14,745
481,68	13,023
481,88	15,179
482,08	12,491
482,29	15,333
482,49	11,592
482,69	15,953
482,89	13,504
483,09	17,603
483,29	13,043
483,49	12,375
483,69	17,910
483,89	13,787
484,09	11,650
484,29	10,579
484,50	12,550
484,70	13,508
484,90	14,181
485,10	14,349
485,30	17,127
485,50	17,987
485,70	15,831
485,90	12,430
486,10	10,159
486,30	12,713
486,50	14,012
486,70	12,921
486,90	13,817
487,10	15,467
487,30	13,395
487,51	16,891
487,71	12,470
487,91	12,083
488,11	15,214
488,31	12,084
488,51	17,426
488,71	11,287
488,91	14,800
489,11	13,066
489,31	13,905
489,51	13,647
489,71	14,681
489,91	13,079
490,11	12,221
490,31	14,309
490,51	15,376
490,71	14,014
490,91	12,289
491,11	14,745
491,31	14,495
491,51	9,110
491,72	13,871
491,92	13,633
492,12	15,567
492,32	12,970
492,52	15,881
492,72	15,112
492,92	13,613
493,12	12,662
493,32	13,803
493,52	10,161
493,72	14,411
493,92	13,258
494,12	14,585
494,32	14,508
494,52	12,514
494,72	12,598
494,92	10,561
495,12	15,570
495,32	13,481
495,52	11,212
495,72	14,699
495,92	18,118
496,12	14,544
496,32	11,062
496,52	11,591
496,72	12,938
496,92	12,961
497,12	11,203
497,32	14,012
497,52	14,959
497,72	15,608
497,92	11,588
498,12	12,036
498,32	13,710
498,52	14,035
498,72	11,790
498,92	10,364
499,12	15,228
499,32	11,176
499,52	12,777
499,72	11,671
499,92	13,749
500,12	14,223
500,32	15,333
500,52	12,298
500,72	18,149
500,91	15,408
501,11	13,361
501,31	7,745
501,51	15,506
501,71	13,384
501,91	13,186
502,11	10,386
502,31	12,714
502,51	14,942
502,71	10,366
502,91	12,268
503,11	12,024
503,31	13,233
503,51	11,397
503,71	11,731
503,91	14,912
504,11	11,891
504,31	12,526
504,51	13,244
504,71	15,958
504,91	12,483
505,10	13,233
505,30	12,615
505,50	12,252
505,70	12,914
505,90	11,543
506,10	10,380
506,30	13,030
506,50	13,882
506,70	16,105
506,90	11,140
507,10	12,348
507,30	10,829
507,50	12,608
507,70	12,729
507,89	12,688
508,09	10,434
508,29	12,385
508,49	10,109
508,69	10,086
508,89	11,450
509,09	8,946
509,29	9,847
509,49	11,904
509,69	14,848
509,89	9,806
510,09	9,760
510,28	10,329
510,48	11,085
510,68	11,073
510,88	7,985
511,08	10,676
511,28	10,969
511,48	9,709
511,68	9,119
511,88	8,176
512,07	10,053
512,27	14,238
512,47	13,400
512,67	8,039
512,87	8,827
513,07	10,476
513,27	9,076
513,47	9,518
513,67	11,068
513,86	12,208
514,06	11,175
514,26	8,797
514,46	13,902
514,66	10,473
514,86	9,927
515,06	15,014
515,26	12,339
515,45	9,256
515,65	7,786
515,85	10,990
516,05	9,963
516,25	11,793
516,45	11,058
516,65	9,220
516,84	12,969
517,04	13,152
517,24	9,728
517,44	10,687
517,64	12,538
517,84	10,949
518,04	12,121
518,23	11,217
518,43	13,934
518,63	9,710
518,83	9,390
519,03	9,758
519,23	10,233
519,42	10,081
519,62	10,345
519,82	7,218
520,02	9,733
520,22	8,728
520,42	9,215
520,61	10,645
520,81	12,890
521,01	12,232
521,21	6,266
521,41	9,496
521,61	13,182
521,80	11,517
522,00	11,630
522,20	8,811
522,40	10,653
522,60	9,350
522,79	7,113
522,99	11,475
523,19	6,732
523,39	8,964
523,59	11,045
523,78	12,956
523,98	8,855
524,18	10,037
524,38	10,307
524,58	8,420
524,77	12,956
524,97	9,995
525,17	9,673
525,37	10,855
525,57	9,358
525,76	8,265
525,96	10,512
526,16	6,359
526,36	7,852
526,56	8,815
526,75	8,160
526,95	10,568
527,15	10,067
527,35	10,598
527,55	6,997
527,74	10,746
527,94	7,479
528,14	6,636
528,34	8,855
528,53	8,640
528,73	8,987
528,93	10,523
529,13	8,886
529,32	8,335
529,52	11,715
529,72	8,286
529,92	8,882
530,12	6,093
530,31	4,203
530,51	7,047
530,71	8,574
530,91	8,383
531,10	6,044
531,30	6,794
531,50	6,998
531,70	10,877
531,89	6,703
532,09	7,431
532,29	7,559
532,49	9,349
532,68	8,833
532,88	5,636
533,08	7,923
533,28	9,285
533,47	8,537
533,67	9,335
533,87	6,679
534,06	11,933
534,26	8,055
534,46	5,583
534,66	9,824
534,85	9,325
535,05	3,486
535,25	6,269
535,45	3,229
535,64	6,667
535,84	6,049
536,04	7,352
536,23	5,863
536,43	7,944
536,63	7,164
536,83	9,784
537,02	6,214
537,22	7,243
537,42	5,059
537,61	7,812
537,81	8,570
538,01	9,421
538,20	7,246
538,40	6,052
538,60	9,280
538,80	7,891
538,99	6,841
539,19	7,033
539,39	7,021
539,58	9,857
539,78	6,302
539,98	6,034
540,17	5,876
540,37	5,695
540,57	5,244
540,76	5,567
540,96	4,252
541,16	8,855
541,36	5,383
541,55	2,986
541,75	4,903
541,95	4,657
542,14	4,349
542,34	3,728
542,54	3,300
542,73	4,753
542,93	5,812
543,13	4,212
543,32	4,109
543,52	4,805
543,72	3,662
543,91	5,342
544,11	4,206
544,31	5,447
544,50	4,456
544,70	5,450
544,89	5,219
545,09	5,823
545,29	4,919
545,48	4,483
545,68	4,998
545,88	4,738
546,07	4,998
546,27	5,617
546,47	5,117
546,66	6,762
546,86	5,213
547,06	4,545
547,25	3,840
547,45	4,720
547,64	4,332
547,84	9,808
548,04	6,091
548,23	7,218
548,43	5,579
548,63	8,802
548,82	7,295
549,02	5,478
549,21	4,548
549,41	7,307
549,61	6,390
549,80	6,192
550,00	5,862
550,20	3,818
550,39	7,989
550,59	5,014
550,78	5,807
550,98	3,783
551,18	7,370
551,37	9,210
551,57	5,287
551,76	8,563
551,96	4,951
552,16	4,723
552,35	6,270
552,55	7,013
552,74	7,680
552,94	8,789
553,14	6,834
553,33	6,965
553,53	4,050
553,72	6,790
553,92	7,752
554,12	5,830
554,31	6,094
554,51	8,148
554,70	5,032
554,90	6,585
555,09	7,622
555,29	7,981
555,49	5,495
555,68	9,736
555,88	5,171
556,07	4,980
556,27	7,157
556,46	4,762
556,66	5,323
556,86	7,655
557,05	6,754
557,25	7,288
557,44	6,454
557,64	6,047
557,83	7,393
558,03	6,180
558,22	5,907
558,42	6,745
558,62	7,301
558,81	5,716
559,01	6,727
559,20	7,587
559,40	3,708
559,59	5,886
559,79	4,860
559,98	7,338
560,18	6,293
560,37	7,954
560,57	5,357
560,76	3,166
560,96	6,380
561,16	7,784
561,35	6,385
561,55	9,098
561,74	6,957
561,94	8,343
562,13	7,712
562,33	9,107
562,52	6,220
562,72	8,474
562,91	4,837
563,11	5,204
563,30	8,137
563,50	5,160
563,69	7,935
563,89	4,988
564,08	8,757
564,28	6,475
564,47	7,907
564,67	5,580
564,86	6,245
565,06	5,889
565,25	5,950
565,45	6,608
565,64	9,114
565,84	4,603
566,03	4,427
566,23	6,884
566,42	7,916
566,62	6,704
566,81	6,240
567,01	4,921
567,20	7,501
567,40	4,315
567,59	4,907
567,79	6,626
567,98	7,616
568,18	6,942
568,37	7,532
568,57	6,658
568,76	7,455
568,96	5,910
569,15	7,094
569,35	6,759
569,54	7,788
569,73	8,116
569,93	5,004
570,12	8,135
570,32	7,123
570,51	6,045
570,71	6,825
570,90	8,571
571,10	5,998
571,29	5,534
571,49	5,654
571,68	6,767
571,87	5,772
572,07	6,860
572,26	5,647
572,46	6,999
572,65	5,950
572,85	5,369
573,04	6,506
573,24	6,734
573,43	8,260
573,62	9,575
573,82	6,988
574,01	6,331
574,21	7,380
574,40	5,799
574,60	4,817
574,79	7,300
574,98	6,711
575,18	6,271
575,37	5,719
575,57	7,284
575,76	7,252
575,96	6,071
576,15	6,412
576,34	7,562
576,54	8,018
576,73	6,822
576,93	7,224
577,12	8,014
577,31	6,938
577,51	7,146
577,70	6,735
577,90	6,597
578,09	5,823
578,28	7,063
578,48	7,538
578,67	8,678
578,87	6,940
579,06	5,639
579,25	7,285
579,45	7,196
579,64	6,010
579,84	7,286
580,03	6,312
580,22	8,183
580,42	6,850
580,61	8,054
580,81	8,385
581,00	8,160
581,19	7,641
581,39	6,830
581,58	7,058
581,77	7,888
581,97	7,581
582,16	7,138
582,35	6,523
582,55	7,730
582,74	10,213
582,94	7,010
583,13	5,053
583,32	8,725
583,52	8,252
583,71	8,478
583,90	7,545
584,10	6,856
584,29	9,414
584,48	8,067
584,68	8,431
584,87	9,499
585,06	7,573
585,26	8,471
585,45	8,186
585,65	9,034
585,84	7,054
586,03	7,280
586,23	5,580
586,42	9,240
586,61	10,013
586,81	6,994
587,00	8,940
587,19	8,469
587,39	10,234
587,58	8,534
587,77	11,031
587,97	9,494
588,16	8,480
588,35	9,395
588,54	9,076
588,74	8,765
588,93	11,900
589,12	9,301
589,32	9,303
589,51	9,270
589,70	7,228
589,90	9,531
590,09	10,040
590,28	11,421
590,48	9,969
590,67	10,782
590,86	10,023
591,06	10,241
591,25	11,006
591,44	9,525
591,63	9,759
591,83	12,756
592,02	10,041
592,21	9,949
592,41	10,105
592,60	10,612
592,79	10,299
592,98	9,641
593,18	11,409
593,37	10,581
593,56	11,156
593,76	11,785
593,95	9,289
594,14	11,276
594,33	11,604
594,53	10,529
594,72	10,451
594,91	13,140
595,10	10,359
595,30	11,952
595,49	10,797
595,68	12,208
595,88	11,478
596,07	12,416
596,26	12,167
596,45	11,820
596,65	11,248
596,84	12,239
597,03	11,614
597,22	13,355
597,42	13,929
597,61	12,787
597,80	14,657
597,99	12,326
598,19	13,101
598,38	13,932
598,57	11,819
598,76	14,739
598,95	14,106
599,15	13,202
599,34	13,515
599,53	15,091
599,72	13,479
599,92	14,000
600,11	13,279
600,30	15,085
600,49	14,090
600,69	13,157
600,88	13,821
601,07	12,987
601,26	13,663
601,45	14,335
601,65	13,766
601,84	15,198
602,03	13,339
602,22	15,021
602,42	15,451
602,61	15,532
602,80	16,014
602,99	15,242
603,18	13,655
603,38	15,881
603,57	13,677
603,76	14,598
603,95	14,910
604,14	15,005
604,34	15,837
604,53	14,708
604,72	15,222
604,91	15,875
605,10	16,411
605,29	14,701
605,49	14,420
605,68	16,130
605,87	17,457
606,06	15,825
606,25	15,805
606,45	16,438
606,64	15,634
606,83	17,909
607,02	15,473
607,21	16,765
607,40	16,208
607,60	14,917
607,79	16,310
607,98	14,556
608,17	14,815
608,36	16,448
608,55	16,407
608,75	16,574
608,94	15,739
609,13	14,533
609,32	14,261
609,51	13,858
609,70	14,915
609,89	15,665
610,09	14,021
610,28	15,548
610,47	14,779
610,66	14,151
610,85	13,996
611,04	15,210
611,23	13,896
611,43	14,966
611,62	14,870
611,81	13,792
612,00	14,265
612,19	14,492
612,38	13,841
612,57	15,706
612,77	14,750
612,96	15,114
613,15	16,439
613,34	17,234
613,53	17,027
613,72	17,950
613,91	16,646
614,10	16,883
614,29	17,778
614,49	16,152
614,68	16,313
614,87	16,865
615,06	20,880
615,25	16,902
615,44	18,168
615,63	17,665
615,82	16,941
616,01	19,449
616,21	19,178
616,40	19,251
616,59	20,699
616,78	19,467
616,97	19,019
617,16	19,668
617,35	20,085
617,54	21,726
617,73	21,173
617,92	20,339
618,11	20,514
618,31	18,638
618,50	21,539
618,69	19,583
618,88	19,494
619,07	19,424
619,26	17,407
619,45	19,491
619,64	19,206
619,83	19,782
620,02	18,459
620,21	22,230
620,40	21,220
620,59	19,038
620,78	19,427
620,97	21,954
621,17	21,877
621,36	20,419
621,55	20,709
621,74	21,132
621,93	20,660
622,12	20,615
622,31	20,191
622,50	21,002
622,69	22,796
622,88	22,138
623,07	22,702
623,26	22,269
623,45	23,257
623,64	20,111
623,83	21,741
624,02	22,459
624,21	21,964
624,40	23,417
624,59	21,456
624,78	22,834
624,97	24,897
625,16	20,494
625,35	20,048
625,54	21,959
625,73	22,120
625,92	22,134
626,12	23,457
626,31	24,773
626,50	24,340
626,69	23,100
626,88	22,224
627,07	23,381
627,26	22,357
627,45	21,891
627,64	22,205
627,83	23,614
628,02	23,044
628,21	20,420
628,40	22,862
628,59	23,547
628,78	21,946
628,97	24,117
629,16	20,607
629,35	23,055
629,54	24,140
629,73	21,864
629,92	23,286
630,10	24,842
630,29	24,685
630,48	22,945
630,67	22,962
630,86	23,907
631,05	23,016
631,24	24,180
631,43	22,307
631,62	24,446
631,81	25,071
632,00	24,130
632,19	21,789
632,38	23,842
632,57	25,081
632,76	23,258
632,95	25,349
633,14	26,263
633,33	25,531
633,52	24,978
633,71	25,899
633,90	23,607
634,09	26,735
634,28	23,335
634,47	23,335
634,66	25,673
634,85	25,160
635,04	26,740
635,22	24,993
635,41	24,276
635,60	26,783
635,79	28,421
635,98	24,381
636,17	26,065
636,36	24,675
636,55	26,714
636,74	25,699
636,93	26,363
637,12	25,941
637,31	25,608
637,50	24,333
637,69	26,650
637,87	26,768
638,06	25,213
638,25	26,196
638,44	26,353
638,63	22,866
638,82	25,000
639,01	27,339
639,20	26,071
639,39	27,734
639,58	25,485
639,77	27,496
639,95	25,187
640,14	27,357
640,33	25,163
640,52	25,059
640,71	28,651
640,90	26,140
641,09	29,262
641,28	25,352
641,47	27,516
641,66	25,927
641,84	27,665
642,03	25,407
642,22	26,868
642,41	28,857
642,60	26,058
642,79	27,703
642,98	27,060
643,17	25,140
643,35	25,790
643,54	26,980
643,73	26,825
643,92	30,337
644,11	26,839
644,30	26,087
644,49	30,041
644,67	26,180
644,86	25,315
645,05	27,428
645,24	27,531
645,43	27,957
645,62	27,758
645,81	28,020
645,99	29,127
646,18	28,805
646,37	25,401
646,56	26,140
646,75	29,696
646,94	27,986
647,13	28,436
647,31	27,525
647,50	29,158
647,69	29,756
647,88	27,736
648,07	28,576
648,26	29,573
648,44	27,331
648,63	27,789
648,82	27,392
649,01	28,710
649,20	26,681
649,38	26,259
649,57	27,252
649,76	27,656
649,95	28,705
650,14	27,461
650,33	27,582
650,51	26,385
650,70	28,216
650,89	27,693
651,08	26,348
651,27	28,802
651,45	28,025
651,64	25,339
651,83	28,720
652,02	27,543
652,21	27,763
652,39	27,669
652,58	29,714
652,77	27,338
652,96	28,678
653,15	29,106
653,33	28,804
653,52	29,010
653,71	30,444
653,90	28,759
654,09	29,427
654,27	28,272
654,46	30,923
654,65	28,847
654,84	28,735
655,02	29,899
655,21	29,241
655,40	30,371
655,59	28,456
655,77	29,073
655,96	29,960
656,15	29,948
656,34	31,030
656,53	29,953
656,71	30,200
656,90	29,153
657,09	28,699
657,28	30,848
657,46	28,519
657,65	29,106
657,84	28,996
658,03	30,966
658,21	29,258
658,40	29,053
658,59	30,037
658,78	29,421
658,96	28,855
659,15	28,419
659,34	29,461
659,52	29,700
659,71	29,423
659,90	27,699
660,09	28,650
660,27	27,903
660,46	29,055
660,65	29,134
660,84	28,598
661,02	28,651
661,21	29,898
661,40	29,834
661,58	29,557
661,77	27,746
661,96	26,664
662,15	28,578
662,33	28,298
662,52	30,080
662,71	29,192
662,89	27,254
663,08	29,107
663,27	29,411
663,45	29,142
663,64	29,732
663,83	26,705
664,02	26,351
664,20	29,452
664,39	27,086
664,58	28,083
664,76	27,407
664,95	29,169
665,14	27,242
665,32	27,549
665,51	28,139
665,70	28,727
665,88	29,295
666,07	26,207
666,26	28,759
666,44	29,069
666,63	25,974
666,82	26,447
667,00	27,553
667,19	28,207
667,38	27,809
667,56	28,597
667,75	28,582
667,94	28,924
668,12	27,129
668,31	26,973
668,50	28,305
668,68	27,994
668,87	28,250
669,06	28,802
669,24	29,116
669,43	28,899
669,62	27,534
669,80	26,951
669,99	27,171
670,18	27,080
670,36	26,990
670,55	27,148
670,74	29,314
670,92	26,976
671,11	28,814
671,29	26,994
671,48	28,982
671,67	27,104
671,85	28,000
672,04	27,227
672,23	26,743
672,41	28,699
672,60	29,351
672,78	27,606
672,97	27,126
673,16	27,554
673,34	28,108
673,53	28,140
673,71	28,265
673,90	29,533
674,09	28,055
674,27	28,418
674,46	28,676
674,64	29,834
674,83	28,427
675,02	27,022
675,20	28,248
675,39	28,285
675,57	28,897
675,76	27,837
675,95	30,262
676,13	27,951
676,32	29,329
676,50	28,680
676,69	27,214
676,88	27,103
677,06	27,217
677,25	28,351
677,43	30,393
677,62	28,358
677,80	28,576
677,99	28,488
678,18	29,984
678,36	29,702
678,55	27,858
678,73	28,164
678,92	28,296
679,10	29,280
679,29	26,926
679,48	27,604
679,66	28,832
679,85	28,393
680,03	28,843
680,22	27,441
680,40	28,488
680,59	28,478
680,77	28,015
680,96	28,322
681,15	28,106
681,33	28,849
681,52	27,133
681,70	27,808
681,89	31,269
682,07	29,590
682,26	27,258
682,44	27,967
682,63	28,667
682,81	29,627
683,00	30,286
683,18	27,798
683,37	30,237
683,55	28,141
683,74	28,169
683,92	33,507
684,11	31,408
684,29	29,221
684,48	26,780
684,67	28,013
684,85	28,302
685,04	30,959
685,22	28,416
685,41	28,103
685,59	28,250
685,78	28,600
685,96	29,174
686,15	28,205
686,33	27,218
686,52	28,923
686,70	28,911
686,89	29,565
687,07	28,952
687,26	30,030
687,44	29,783
687,62	27,242
687,81	30,681
687,99	29,228
688,18	30,181
688,36	28,239
688,55	30,260
688,73	29,159
688,92	28,452
689,10	30,948
689,29	28,719
689,47	31,404
689,66	29,344
689,84	28,703
690,03	27,762
690,21	29,274
690,40	30,068
690,58	28,523
690,76	29,394
690,95	31,280
691,13	28,943
691,32	29,562
691,50	30,248
691,69	31,553
691,87	29,581
692,06	28,835
692,24	28,322
692,43	30,609
692,61	29,198
692,79	28,500
692,98	28,652
693,16	30,991
693,35	28,996
693,53	30,552
693,72	30,154
693,90	30,813
694,08	29,366
694,27	28,884
694,45	32,443
694,64	31,363
694,82	31,150
695,01	27,938
695,19	29,526
695,37	29,656
695,56	29,837
695,74	30,761
695,93	32,254
696,11	29,233
696,29	31,467
696,48	30,943
696,66	30,410
696,85	31,552
697,03	28,822
697,21	30,498
697,40	29,537
697,58	29,880
697,77	29,865
697,95	30,411
698,13	31,176
698,32	28,773
698,50	30,288
698,69	29,519
698,87	30,169
699,05	30,409
699,24	29,857
699,42	29,794
699,60	27,800
699,79	30,180
699,97	29,244
700,16	29,387
700,34	31,044
700,52	30,292
700,71	28,286
700,89	29,461
701,07	29,657
701,26	29,939
701,44	29,772
701,63	27,748
701,81	31,056
701,99	30,024
702,18	28,778
702,36	28,276
702,54	30,289
702,73	28,428
702,91	29,572
703,09	30,717
703,28	29,323
703,46	30,149
703,64	30,776
703,83	29,556
704,01	31,342
704,19	30,014
704,38	28,228
704,56	28,792
704,74	31,493
704,93	30,785
705,11	29,805
705,29	29,229
705,48	31,633
705,66	30,602
705,84	28,835
706,03	26,926
706,21	30,286
706,39	29,324
706,58	28,200
706,76	28,351
706,94	30,977
707,12	31,381
707,31	28,021
707,49	28,618
707,67	30,224
707,86	30,664
708,04	29,892
708,22	30,251
708,41	29,606
708,59	28,580
708,77	27,767
708,95	30,802
709,14	31,090
709,32	30,692
709,50	28,253
709,69	29,982
709,87	29,375
710,05	30,689
710,23	29,937
710,42	28,562
710,60	29,793
710,78	30,227
710,97	29,032
711,15	29,397
711,33	31,785
711,51	28,516
711,70	27,661
711,88	29,392
712,06	30,784
712,24	29,475
712,43	30,379
712,61	27,803
712,79	29,893
712,97	28,741
713,16	29,910
713,34	27,974
713,52	31,331
713,70	30,361
713,89	30,013
714,07	30,069
714,25	29,777
714,43	30,646
714,62	27,639
714,80	30,951
714,98	27,857
715,16	30,739
715,35	29,255
715,53	28,812
715,71	30,952
715,89	32,018
716,07	29,279
716,26	34,835
716,44	32,467
716,62	30,666
716,80	29,224
716,99	30,226
717,17	30,425
717,35	30,151
717,53	28,211
717,71	31,173
717,90	29,391
718,08	29,458
718,26	27,970
718,44	31,107
718,62	30,536
718,81	30,699
718,99	28,616
719,17	29,466
719,35	30,494
719,53	29,374
719,72	28,581
719,90	30,108
720,08	29,282
720,26	31,400
720,44	30,339
720,62	29,709
720,81	31,132
720,99	32,986
721,17	29,129
721,35	31,685
721,53	31,604
721,72	32,026
721,90	30,411
722,08	30,948
722,26	30,842
722,44	29,703
722,62	30,521
722,81	29,219
722,99	29,600
723,17	29,965
723,35	31,315
723,53	29,257
723,71	32,228
723,89	30,978
724,08	30,946
724,26	31,143
724,44	29,588
724,62	30,735
724,80	30,243
724,98	28,810
725,16	32,853
725,35	29,189
725,53	28,725
725,71	29,015
725,89	30,136
726,07	31,985
726,25	32,963
726,43	29,493
726,61	31,748
726,80	31,007
726,98	29,899
727,16	30,348
727,34	29,149
727,52	30,388
727,70	28,757
727,88	31,105
728,06	28,718
728,25	28,898
728,43	29,807
728,61	28,940
728,79	30,553
728,97	29,534
729,15	31,047
729,33	32,341
729,51	30,521
729,69	30,185
729,87	30,793
730,06	30,809
730,24	30,435
730,42	33,599
730,60	29,572
730,78	31,172
730,96	29,149
731,14	31,925
731,32	30,253
731,50	30,228
731,68	30,141
731,86	31,496
732,04	31,863
732,22	31,028
732,41	30,155
732,59	31,215
732,77	32,665
732,95	30,621
733,13	32,194
733,31	29,296
733,49	29,471
733,67	30,384
733,85	30,524
734,03	31,285
734,21	29,607
734,39	30,519
734,57	31,206
734,75	33,185
734,93	28,957
735,11	31,387
735,29	29,715
735,47	31,276
735,65	28,458
735,84	28,414
736,02	31,384
736,20	34,007
736,38	29,252
736,56	29,240
736,74	31,953
736,92	28,746
737,10	30,829
737,28	30,128
737,46	28,434
737,64	30,313
737,82	31,085
738,00	30,884
738,18	31,641
738,36	30,858
738,54	29,982
738,72	30,748
738,90	29,190
739,08	31,943
739,26	29,325
739,44	30,902
739,62	31,059
739,80	29,825
739,98	30,543
740,16	31,490
740,34	31,954
740,52	33,288
740,70	30,198
740,88	27,976
741,06	29,907
741,24	31,350
741,42	31,593
741,60	29,179
741,78	30,674
741,96	28,467
742,14	29,697
742,32	31,133
742,50	30,728
742,68	30,584
742,86	30,943
743,04	29,130
743,21	31,535
743,39	32,368
743,57	29,982
743,75	29,549
743,93	29,565
744,11	28,666
744,29	30,126
744,47	29,725
744,65	30,726
744,83	31,943
745,01	30,755
745,19	32,773
745,37	33,066
745,55	31,236
745,73	31,141
745,91	29,968
746,09	31,312
746,27	29,591
746,45	27,534
746,62	30,267
746,80	30,340
746,98	30,798
747,16	28,054
747,34	29,802
747,52	31,267
747,70	31,927
747,88	29,766
748,06	29,275
748,24	30,797
748,42	32,293
748,60	29,802
748,78	29,212
748,95	30,271
749,13	32,415
749,31	31,724
749,49	30,668
749,67	32,562
749,85	31,260
750,03	30,381
750,21	29,671
750,39	30,237
750,57	31,811
750,74	30,195
750,92	28,542
751,10	30,820
751,28	28,363
751,46	29,964
751,64	31,981
751,82	30,992
752,00	31,640
752,17	30,831
752,35	27,754
752,53	29,615
752,71	32,912
752,89	32,587
753,07	31,436
753,25	33,415
753,43	28,309
753,60	32,316
753,78	30,351
753,96	32,933
754,14	31,104
754,32	31,072
754,50	32,562
754,68	30,847
754,85	30,326
755,03	30,150
755,21	30,760
755,39	32,105
755,57	32,114
755,75	30,650
755,92	30,381
756,10	29,879
756,28	32,817
756,46	29,509
756,64	30,848
756,82	31,353
756,99	30,888
757,17	31,135
757,35	30,296
757,53	32,197
757,71	33,261
757,89	29,352
758,06	31,091
758,24	32,565
758,42	31,953
758,60	30,912
758,78	31,062
758,95	30,439
759,13	33,487
759,31	29,769
759,49	30,305
759,67	30,078
759,84	29,913
760,02	34,022
760,20	31,033
760,38	30,817
760,56	31,045
760,73	30,398
760,91	30,795
761,09	32,668
761,27	29,610
761,45	31,670
761,62	31,162
761,80	30,318
761,98	30,674
762,16	31,281
762,33	30,482
762,51	33,672
762,69	30,782
762,87	31,269
763,05	30,922
763,22	28,753
763,40	30,509
763,58	28,444
763,76	30,406
763,93	33,258
764,11	32,261
764,29	29,627
764,47	31,776
764,64	32,392
764,82	31,375
765,00	29,730
765,18	29,024
765,35	32,172
765,53	31,638
765,71	32,059
765,89	29,761
766,06	30,026
766,24	30,655
766,42	30,335
766,60	29,869
766,77	32,844
766,95	29,632
767,13	31,492
767,30	31,607
767,48	30,353
767,66	29,706
767,84	29,833
768,01	30,342
768,19	31,163
768,37	30,083
768,54	30,755
768,72	32,557
768,90	30,902
769,08	31,156
769,25	30,559
769,43	30,101
769,61	30,882
769,78	31,750
769,96	31,482
770,14	31,522
770,31	32,705
770,49	32,283
770,67	31,828
770,85	28,081
771,02	33,658
771,20	30,668
771,38	32,276
771,55	30,958
771,73	30,223
771,91	30,314
772,08	34,388
772,26	30,647
772,44	31,070
772,61	31,908
772,79	29,504
772,97	30,190
773,14	27,617
773,32	33,173
773,50	30,507
773,67	30,549
773,85	33,587
774,03	33,380
774,20	31,137
774,38	31,652
774,56	29,327
774,73	30,301
774,91	31,348
775,09	31,420
775,26	31,420
775,44	32,254
775,61	32,661
775,79	29,665
775,97	33,327
776,14	32,093
776,32	31,103
776,50	27,894
776,67	30,880
776,85	32,816
777,03	28,685
777,20	30,111
777,38	33,620
777,55	32,844
777,73	28,222
777,91	30,990
778,08	31,661
778,26	30,156
778,43	32,538
778,61	28,269
778,79	30,925
778,96	27,924
779,14	32,423
779,32	30,934
779,49	32,440
779,67	33,838
779,84	32,154
780,02	32,902
780,20	29,605
780,37	32,582
780,55	26,121
780,72	30,606
780,90	31,612
781,07	30,445
781,25	32,906
781,43	31,181
781,60	30,866
781,78	31,938
781,95	31,887
782,13	30,406
782,30	31,516
782,48	31,879
782,66	31,680
782,83	29,540
783,01	34,101
783,18	33,848
783,36	33,334
783,53	33,038
783,71	31,369
783,89	30,930
784,06	32,052
784,24	30,223
784,41	33,652
784,59	29,450
784,76	32,598
784,94	33,438
785,11	31,390
785,29	31,266
785,46	30,611
785,64	31,142
785,82	30,987
785,99	32,193
786,17	31,030
786,34	29,583
786,52	32,996
786,69	33,397
786,87	29,355
787,04	31,446
787,22	29,605
787,39	33,513
787,57	31,660
787,74	30,455
787,92	31,509
788,09	30,542
788,27	30,089
788,44	30,882
788,62	31,813
788,79	32,109
788,97	32,193
789,14	29,747
789,32	28,896
789,49	31,488
789,67	30,513
789,84	32,153
790,02	32,985
790,19	30,733
790,37	32,308
790,54	31,841
790,72	35,692
790,89	33,393
791,07	34,669
791,24	29,871
791,42	31,997
791,59	31,951
791,77	31,453
791,94	30,556
792,12	30,417
792,29	34,670
792,47	31,134
792,64	34,938
792,81	28,928
792,99	32,000
793,16	31,665
793,34	34,152
793,51	30,641
793,69	33,143
793,86	31,604
794,04	32,162
794,21	35,343
794,39	29,821
794,56	33,256
794,73	31,771
794,91	35,388
795,08	30,895
795,26	30,772
795,43	33,093
795,61	35,351
795,78	33,052
795,95	33,334
796,13	32,210
796,30	32,829
796,48	32,213
796,65	34,566
796,83	32,694
797,00	34,140
797,17	29,931
797,35	33,661
797,52	34,205
797,70	36,777
797,87	32,530
798,04	29,431
798,22	32,355
798,39	33,286
798,57	32,608
798,74	31,633
798,91	31,890
799,09	32,039
799,26	32,895
799,44	33,436
799,61	29,635
799,78	35,097
799,96	32,607
800,13	32,858
800,31	29,705
800,48	32,139
800,65	34,746
800,83	28,707
801,00	33,987
801,17	34,830
801,35	32,939
801,52	33,861
801,70	31,550
801,87	31,167
802,04	36,648
802,22	28,943
802,39	32,097
802,56	36,269
802,74	34,638
802,91	33,675
803,08	32,082
803,26	33,901
803,43	35,629
803,61	31,802
803,78	35,030
803,95	30,479
804,13	32,686
804,30	30,004
804,47	32,505
804,65	31,520
804,82	34,258
804,99	31,566
805,17	33,827
805,34	39,033
805,51	37,389
805,69	30,730
805,86	34,213
806,03	31,731
806,21	33,225
806,38	33,847
806,55	36,398
806,72	36,706
806,90	36,321
807,07	35,833
807,24	32,080
807,42	32,765
807,59	35,120
807,76	28,563
807,94	30,557
808,11	30,968
808,28	40,449
808,45	32,981
808,63	33,152
808,80	36,086
808,97	33,234
809,15	33,122
809,32	34,517
809,49	30,347
809,67	29,489
809,84	34,948
810,01	36,245
810,18	39,874
810,36	32,886
810,53	36,499
810,70	34,331
810,87	30,800
811,05	31,642
811,22	34,214
811,39	32,627
811,57	38,703
811,74	36,381
811,91	31,657
812,08	35,043
812,26	33,261
812,43	34,184
812,60	34,895
812,77	33,054
812,95	38,946
813,12	34,263
813,29	32,330
813,46	35,546
813,64	35,443
813,81	34,708
813,98	35,416
814,15	35,992
814,32	37,917
814,50	37,086
814,67	34,780
814,84	33,489
815,01	34,151
815,19	34,136
815,36	28,435
815,53	35,282
815,70	32,491
815,87	38,022
816,05	32,866
816,22	36,397
816,39	40,949
816,56	35,614
816,74	35,707
816,91	32,381
817,08	43,957
817,25	40,002
817,42	36,165
817,60	33,790
817,77	40,557
817,94	38,048
818,11	34,117
818,28	37,455
818,45	32,390
818,63	37,432
818,80	33,576
818,97	30,023
819,14	40,166
819,31	38,619
819,49	36,828
819,66	35,741
819,83	32,457
820,00	36,007
820,17	31,949
820,34	38,841
820,52	40,928
820,69	35,910
820,86	30,041
821,03	31,671
821,20	37,260
821,37	36,273
821,55	30,801
821,72	34,944
821,89	35,689
822,06	33,984
822,23	35,288
822,40	33,978
822,57	33,929
822,75	37,066
822,92	33,382
823,09	35,950
823,26	40,467
823,43	42,601
823,60	35,208
823,77	36,473
823,94	34,699
824,12	39,205
824,29	33,425
824,46	34,603
824,63	39,380
824,80	35,538
824,97	39,251
825,14	37,981
825,31	39,522
825,49	37,681
825,66	35,584
825,83	36,396
826,00	38,891
826,17	44,597
826,34	38,231
826,51	31,583
826,68	31,434
826,85	36,136
827,02	36,812
827,20	32,879
827,37	38,315
827,54	39,461
827,71	32,975
827,88	34,006
828,05	38,161
828,22	32,449
828,39	43,008
828,56	32,261
828,73	39,078
828,90	38,790
829,07	34,661
829,25	35,878
829,42	35,534
829,59	36,494
829,76	31,449
829,93	35,201
830,10	37,681
830,27	33,426
830,44	38,532
830,61	35,111
830,78	25,734
830,95	30,242
831,12	33,151
831,29	32,551
831,46	30,581
831,63	33,898
831,80	34,538
831,97	34,361
832,14	42,019
832,31	42,671
832,48	32,179
832,65	39,664
832,83	35,686
833,00	32,367
833,17	34,049
833,34	30,784
833,51	35,337
833,68	41,695
833,85	40,049
834,02	31,094
834,19	38,120
834,36	35,442
834,53	22,860
834,70	30,078
834,87	42,327
835,04	35,921
835,21	40,148
835,38	34,724
835,55	33,358
835,72	50,407
835,89	36,483
836,06	40,161
836,23	41,938
836,40	31,623
836,57	32,614
836,74	46,065
836,91	38,567
837,08	46,425
837,25	39,576
837,42	27,141
837,59	39,250
837,76	42,814
837,93	37,240
838,09	31,905
838,26	45,215
838,43	49,528
838,60	35,031
838,77	38,708
838,94	49,507
839,11	40,617
839,28	35,276
839,45	35,157
839,62	36,887
839,79	39,975
839,96	35,098
840,13	44,848
840,30	39,323
840,47	30,335
840,64	38,692
840,81	38,029
840,98	32,952
841,15	50,583
841,32	27,100
841,48	41,693
841,65	38,194
841,82	39,444
841,99	43,066
842,16	33,234
842,33	42,285
842,50	35,502
842,67	31,975
842,84	35,339
843,01	40,760
843,18	41,784
843,35	44,201
843,52	39,853
843,68	42,745
843,85	36,641
844,02	44,701
844,19	31,257
844,36	45,984
844,53	41,427
844,70	37,255
844,87	43,436
845,04	42,147
845,21	39,007
845,37	45,494
845,54	41,695
845,71	47,470
845,88	46,572
846,05	37,421
846,22	29,092
846,39	35,826
846,56	46,678
846,72	21,515
846,89	39,297
847,06	45,044
847,23	49,684
847,40	36,938
847,57	27,711
847,74	42,041
847,90	52,028
848,07	37,546
848,24	35,448
848,41	40,080
848,58	46,195
848,75	41,484
848,92	29,722
849,08	37,708
849,25	42,311
849,42	31,536
849,59	29,763
849,76	38,318
849,93	29,679
850,09	49,562
850,26	35,837
850,43	56,343
850,60	36,588
850,77	36,075
850,94	42,927
851,10	38,047
851,27	40,175
851,44	33,261
851,61	35,481
851,78	43,885
851,95	42,910
852,11	34,203
852,28	37,029
852,45	46,167
852,62	40,301
852,79	41,878
852,95	42,958
853,12	55,011
853,29	43,917
853,46	31,923
853,63	45,921
853,79	34,689
853,96	40,568
854,13	47,807
854,30	39,793
854,46	59,426
854,63	42,210
854,80	43,932
854,97	33,002
855,14	43,830
855,30	44,522
855,47	35,875
855,64	33,795
855,81	44,173
855,97	47,420
856,14	35,230
856,31	30,185
856,48	44,236
856,65	54,110
856,81	28,997
856,98	38,733
857,15	45,063
857,32	39,082
857,48	31,727
857,65	48,132
857,82	43,968
857,99	54,265
858,15	41,294
858,32	46,814
858,49	49,648
858,65	52,769
858,82	44,385
858,99	39,178
859,16	48,402
859,32	43,565
859,49	45,231
859,66	32,684
859,83	36,747
859,99	31,641
860,16	43,872
860,33	38,456
860,49	41,673
860,66	59,677
860,83	40,335
861,00	43,399
861,16	58,147
861,33	58,021
861,50	32,523
861,66	35,929
861,83	55,374
862,00	49,797
862,16	36,282
862,33	46,125
862,50	81,339
862,67	31,489
862,83	37,853
863,00	64,922
863,17	55,796
863,33	37,391
863,50	27,308
863,67	28,956
863,83	37,870
864,00	37,703
864,17	39,337
864,33	44,500
864,50	56,567
864,67	42,047
864,83	45,871
865,00	43,436
865,17	36,662
865,33	54,868
865,50	38,682
865,67	26,439
865,83	50,008
866,00	73,497
866,17	46,315
866,33	47,342
866,50	64,436
866,66	65,505
866,83	43,939
867,00	51,241
867,16	56,992
867,33	60,330
867,50	-1,143
867,66	49,800
867,83	68,158
868,00	55,724
868,16	40,608
868,33	34,924
868,49	63,997
868,66	50,488
868,83	46,765
868,99	60,849
869,16	65,071
869,32	51,220
869,49	26,670
869,66	32,361
869,82	65,871
869,99	79,824
870,15	27,410
870,32	45,485
870,49	61,442
870,65	68,263
870,82	46,282
870,98	69,839
871,15	70,199
871,32	56,289
871,48	26,829
871,65	44,967
871,81	48,333
871,98	15,627
872,15	39,458
872,31	27,644
872,48	70,359
872,64	53,032
872,81	39,403
872,97	34,845
873,14	69,585
873,31	76,802
873,47	45,210
873,64	50,267
873,80	76,712
873,97	85,698
874,13	29,609
874,30	30,273
874,46	58,943
874,63	57,776
874,80	49,737
874,96	30,415
875,13	103,583
875,29	29,048
875,46	53,412
875,62	-8,059
875,79	76,967
875,95	37,118
876,12	25,738
876,28	29,766
876,45	88,718
876,61	74,405
876,78	37,841
876,94	36,219
877,11	36,072
877,27	86,020
877,44	94,310
877,60	51,243
877,77	72,128
877,94	88,731
878,10	91,991
878,27	69,717
878,43	107,998
878,60	34,451
878,76	41,722
878,93	25,540
879,09	100,570
879,26	51,871
879,42	49,226
879,58	78,071
879,75	105,746
879,91	90,384
880,08	-32,643
880,24	29,349
880,41	79,166
880,57	87,287
880,74	40,473
880,90	79,806
881,07	69,105
881,23	33,534
881,40	61,487
881,56	63,027
881,73	88,808
881,89	84,651
882,06	80,447
882,22	203,504
882,38	107,258
882,55	90,185
882,71	13,666
882,88	4,695
883,04	83,927
883,21	139,964
883,37	41,145
883,54	65,147
883,70	141,868
883,86	109,492
884,03	72,430
884,19	52,440
884,36	-105,844
884,52	83,410
884,69	60,041
884,85	64,256
885,01	79,659
885,18	63,163
885,34	212,474
885,51	-25,368
885,67	51,830
>>>>> Data<<<<< Espectral Procesado Extremo
