Fichero De Datos De SpectraSuite
++++++++++++++++++++++++++++++++++++
Fecha: Wed Apr 22 11:22:08 CEST 2009
Usuario: evoflor
Presente Oscuro Del Espectro: Sí
La Referencia de Presente Del Espectro De: Sí
Muestreados de los componentes de Número de espectros: 1
Espectrómetros: USB4F02353
Tiempo de integración (usec): 500000 (USB4F02353)
Promedio de Espectros Hechos un: 5 (USB4F02353)
El Alisar Del Furgón: 0 (USB4F02353)
Párrafo de de Corregir del la del del de Eléctrica del obscuridad: Sí (USB4F02353)
Estrobo/Lámpara Permitido: No (USB4F02353)
Correct for Detector Non-linearity: No (USB4F02353)
Párrafo de de Corregir del la del del de Externa del luz: No (USB4F02353)
Procesado del espectro de Número de pixeles en: 3648
>>>>> Comienza Data<<<<< Espectral Procesado Del EL
177,79	223,647
178,00	223,647
178,22	223,647
178,44	659,066
178,66	-175,796
178,88	75,163
179,09	-81,809
179,31	221,261
179,53	430,108
179,75	71,461
179,96	724,353
180,18	-205,923
180,40	161,545
180,62	521,286
180,83	-337,087
181,05	-1189,329
181,27	-79525,000
181,49	-100,489
181,70	35,865
181,92	444,797
182,14	217,846
182,36	291,922
182,58	86,750
182,79	837,165
183,01	-79,281
183,23	135,349
183,45	-61,923
183,66	-200,553
183,88	372,500
184,10	-1675,000
184,32	359,468
184,53	112,319
184,75	-135,823
184,97	82,038
185,18	-24,295
185,40	-542,428
185,62	107,781
185,84	18,395
186,05	73,490
186,27	-223,459
186,49	4270,192
186,71	120,707
186,92	79,837
187,14	-202,774
187,36	138,504
187,58	89,866
187,79	-131,801
188,01	192,465
188,23	-208,026
188,45	-1,969
188,66	9,487
188,88	-2313,182
189,10	-1236,250
189,31	-0,555
189,53	-155,429
189,75	297,330
189,97	208,942
190,18	-95,172
190,40	483,676
190,62	-145,907
190,83	-214,251
191,05	112,122
191,27	183,500
191,49	334,963
191,70	-321,755
191,92	-414,619
192,14	-9,880
192,35	609,615
192,57	1989,286
192,79	56,585
193,01	182,849
193,22	122,564
193,44	-144,923
193,66	89,119
193,87	6,478
194,09	-44,423
194,31	98,373
194,53	921,154
194,74	-40,121
194,96	-37,564
195,18	160,740
195,39	-150,462
195,61	-107,638
195,83	-104,402
196,04	111,069
196,26	-449,372
196,48	72,537
196,70	57,903
196,91	143,255
197,13	187,658
197,35	-139,081
197,56	349,303
197,78	2118,097
198,00	480,594
198,21	281,189
198,43	-488,517
198,65	148,283
198,86	117,716
199,08	116,148
199,30	140,941
199,51	-288,355
199,73	155,813
199,95	375,062
200,16	399,327
200,38	245,451
200,60	103,174
200,81	266,649
201,03	137,840
201,25	-1308,250
201,46	251,439
201,68	127,545
201,90	1418,750
202,11	-334,447
202,33	226,795
202,55	-412,187
202,76	-42,592
202,98	299,042
203,20	-161,659
203,41	-603,289
203,63	89,768
203,85	-100225,000
204,06	32,077
204,28	-33,313
204,50	189,098
204,71	328,136
204,93	53,000
205,15	239,533
205,36	-189,914
205,58	144,002
205,80	-203,444
206,01	111,057
206,23	119,595
206,45	175,479
206,66	138,159
206,88	37,269
207,10	158,239
207,31	328,245
207,53	70,357
207,75	31,609
207,96	271,082
208,18	-186,391
208,39	156,221
208,61	1809,286
208,83	-278,018
209,04	149,090
209,26	73,157
209,48	75,795
209,69	171,815
209,91	484,544
210,13	16,253
210,34	188,196
210,56	98,054
210,77	-902,559
210,99	112,041
211,21	6213,235
211,42	-122,664
211,64	28,338
211,86	171,399
212,07	286,597
212,29	246,806
212,50	94,574
212,72	35,865
212,94	154,750
213,15	86,797
213,37	95,609
213,58	-130,432
213,80	-1554,464
214,02	8330,882
214,23	228,878
214,45	343,361
214,67	-1441,768
214,88	56,292
215,10	-311,136
215,31	-58,242
215,53	-144,489
215,75	141,435
215,96	1522,516
216,18	-692,606
216,39	165,682
216,61	313,155
216,83	262,612
217,04	1469,944
217,26	29,556
217,47	32,660
217,69	131,507
217,91	-19,394
218,12	-59725,000
218,34	211,955
218,55	344,629
218,77	76,117
218,99	85,997
219,20	-75,033
219,42	372,294
219,63	-25,640
219,85	-94,071
220,06	-161,442
220,28	192,012
220,50	-53,066
220,71	82,381
220,93	2689,151
221,14	-1362,250
221,36	-10,946
221,58	-26,773
221,79	-238,923
222,01	1205,388
222,22	398,849
222,44	-148,034
222,65	161,690
222,87	543,531
223,09	109,617
223,30	90,204
223,52	149,585
223,73	56,615
223,95	16,937
224,16	230,773
224,38	60,486
224,60	99,631
224,81	167,807
225,03	72,715
225,24	136,201
225,46	-66,736
225,67	-59,234
225,89	-67,899
226,10	391,340
226,32	657,800
226,54	67,232
226,75	-41,944
226,97	99,026
227,18	105,807
227,40	74,789
227,61	33,922
227,83	22,188
228,04	70,477
228,26	43,246
228,47	51,737
228,69	156,016
228,91	167,453
229,12	88,684
229,34	63,546
229,55	45,508
229,77	33,358
229,98	23,975
230,20	81,869
230,41	-8,719
230,63	72,864
230,84	-0,551
231,06	0,145
231,27	3,443
231,49	47,059
231,71	16,975
231,92	46,360
232,14	27,212
232,35	11,328
232,57	29,548
232,78	12,052
233,00	9,882
233,21	45,186
233,43	11,640
233,64	31,770
233,86	10,098
234,07	3,893
234,29	19,668
234,50	8,264
234,72	32,614
234,93	-7,525
235,15	20,722
235,36	25,892
235,58	30,801
235,79	26,640
236,01	14,452
236,22	2,295
236,44	17,692
236,65	14,980
236,87	17,319
237,08	6,481
237,30	-10,381
237,51	7,054
237,73	-8,695
237,94	5,657
238,16	15,472
238,37	-2,956
238,59	7,711
238,80	10,889
239,02	8,545
239,23	16,105
239,45	-6,672
239,66	19,978
239,88	28,411
240,09	20,527
240,31	6,336
240,52	2,142
240,74	6,418
240,95	5,269
241,17	10,958
241,38	5,918
241,60	10,662
241,81	24,815
242,03	0,590
242,24	3,814
242,46	13,039
242,67	1,520
242,89	6,766
243,10	13,017
243,32	12,535
243,53	9,071
243,75	2,451
243,96	0,547
244,18	10,071
244,39	11,546
244,60	3,247
244,82	3,099
245,03	13,248
245,25	7,164
245,46	17,617
245,68	4,322
245,89	20,493
246,11	5,868
246,32	5,922
246,54	-2,269
246,75	10,797
246,97	4,407
247,18	12,303
247,39	3,118
247,61	6,725
247,82	13,558
248,04	4,084
248,25	4,305
248,47	8,201
248,68	10,308
248,90	-1,642
249,11	11,266
249,33	13,043
249,54	5,545
249,75	5,744
249,97	2,462
250,18	16,388
250,40	18,865
250,61	-6,262
250,83	-1,344
251,04	-3,438
251,25	9,290
251,47	0,169
251,68	4,291
251,90	4,993
252,11	6,061
252,33	2,233
252,54	8,628
252,76	2,782
252,97	2,541
253,18	-0,663
253,40	0,408
253,61	3,675
253,83	6,282
254,04	9,908
254,25	3,228
254,47	3,479
254,68	3,017
254,90	3,434
255,11	5,400
255,33	3,989
255,54	2,176
255,75	-1,639
255,97	3,603
256,18	-0,204
256,40	4,021
256,61	6,883
256,82	-3,879
257,04	8,915
257,25	-0,124
257,47	1,126
257,68	1,824
257,89	9,829
258,11	6,029
258,32	5,116
258,54	4,205
258,75	11,347
258,96	5,859
259,18	2,852
259,39	3,882
259,61	3,230
259,82	1,016
260,03	6,356
260,25	2,564
260,46	3,940
260,68	0,891
260,89	5,735
261,10	0,177
261,32	4,249
261,53	1,614
261,75	8,085
261,96	0,306
262,17	6,577
262,39	8,747
262,60	-1,165
262,81	-5,259
263,03	6,626
263,24	1,888
263,46	-1,092
263,67	0,396
263,88	3,979
264,10	4,640
264,31	3,250
264,52	3,534
264,74	6,963
264,95	5,059
265,17	6,534
265,38	3,792
265,59	1,241
265,81	8,408
266,02	0,891
266,23	2,584
266,45	8,107
266,66	7,227
266,87	5,261
267,09	-1,776
267,30	4,935
267,52	8,222
267,73	1,639
267,94	0,980
268,16	7,066
268,37	2,761
268,58	4,763
268,80	1,245
269,01	1,735
269,22	5,280
269,44	5,650
269,65	2,619
269,86	-1,964
270,08	6,342
270,29	2,588
270,50	5,345
270,72	7,016
270,93	-1,499
271,14	-1,229
271,36	0,637
271,57	1,447
271,78	3,824
272,00	4,410
272,21	4,957
272,42	6,477
272,64	2,653
272,85	0,307
273,06	3,341
273,28	4,210
273,49	5,216
273,70	3,271
273,92	6,164
274,13	5,758
274,34	4,035
274,56	3,639
274,77	1,081
274,98	9,373
275,20	2,437
275,41	5,480
275,62	0,882
275,84	0,539
276,05	8,822
276,26	0,471
276,47	-0,341
276,69	3,650
276,90	6,428
277,11	0,534
277,33	0,949
277,54	6,522
277,75	4,375
277,97	1,453
278,18	1,249
278,39	5,108
278,61	1,968
278,82	4,172
279,03	5,685
279,24	3,825
279,46	2,638
279,67	5,097
279,88	1,526
280,10	6,487
280,31	0,076
280,52	4,594
280,73	-0,219
280,95	6,882
281,16	4,713
281,37	2,821
281,59	7,801
281,80	9,043
282,01	2,892
282,22	1,538
282,44	0,613
282,65	9,793
282,86	5,312
283,08	1,198
283,29	2,554
283,50	2,286
283,71	3,526
283,93	3,940
284,14	3,810
284,35	0,579
284,56	4,117
284,78	0,959
284,99	2,093
285,20	6,596
285,42	4,842
285,63	0,131
285,84	-2,081
286,05	0,315
286,27	2,986
286,48	0,754
286,69	2,232
286,90	1,754
287,12	0,440
287,33	4,962
287,54	1,167
287,75	2,903
287,97	3,401
288,18	3,741
288,39	0,676
288,60	2,988
288,82	3,055
289,03	0,759
289,24	1,910
289,45	5,364
289,67	3,052
289,88	1,118
290,09	3,213
290,30	1,391
290,52	2,529
290,73	2,190
290,94	-1,721
291,15	2,003
291,37	3,105
291,58	1,614
291,79	0,170
292,00	3,101
292,21	4,462
292,43	3,171
292,64	0,670
292,85	1,911
293,06	4,559
293,28	-0,148
293,49	-0,624
293,70	5,473
293,91	2,904
294,12	4,400
294,34	2,125
294,55	2,292
294,76	1,141
294,97	4,177
295,19	-2,272
295,40	5,010
295,61	4,537
295,82	-1,924
296,03	3,861
296,25	3,098
296,46	0,827
296,67	0,135
296,88	-0,598
297,09	4,407
297,31	2,803
297,52	2,307
297,73	2,169
297,94	4,253
298,15	4,035
298,37	2,717
298,58	2,713
298,79	3,857
299,00	1,622
299,21	2,304
299,43	1,589
299,64	7,931
299,85	2,825
300,06	1,589
300,27	1,388
300,49	8,889
300,70	2,831
300,91	4,470
301,12	1,600
301,33	6,163
301,54	2,640
301,76	0,765
301,97	0,501
302,18	1,054
302,39	5,227
302,60	4,987
302,82	1,482
303,03	5,935
303,24	2,943
303,45	2,028
303,66	3,726
303,87	2,009
304,09	4,577
304,30	2,560
304,51	1,017
304,72	1,957
304,93	4,379
305,14	5,395
305,36	-0,967
305,57	1,174
305,78	1,157
305,99	-0,579
306,20	1,960
306,41	0,839
306,62	0,780
306,84	0,711
307,05	0,988
307,26	0,577
307,47	5,607
307,68	0,543
307,89	-1,212
308,11	3,515
308,32	2,178
308,53	3,623
308,74	0,994
308,95	3,103
309,16	1,542
309,37	5,666
309,59	0,753
309,80	4,784
310,01	3,723
310,22	4,641
310,43	3,119
310,64	2,754
310,85	2,783
311,06	0,429
311,28	1,885
311,49	1,171
311,70	6,803
311,91	1,307
312,12	0,648
312,33	3,450
312,54	3,850
312,75	0,516
312,97	-0,139
313,18	1,897
313,39	3,076
313,60	1,616
313,81	2,772
314,02	2,273
314,23	3,192
314,44	0,539
314,65	2,329
314,87	2,241
315,08	1,997
315,29	5,682
315,50	2,506
315,71	2,695
315,92	6,507
316,13	2,369
316,34	6,479
316,55	4,799
316,77	-0,748
316,98	2,072
317,19	0,033
317,40	5,516
317,61	4,977
317,82	1,878
318,03	-2,062
318,24	1,888
318,45	7,537
318,66	2,488
318,87	-0,529
319,09	3,800
319,30	3,953
319,51	1,557
319,72	4,591
319,93	5,196
320,14	5,062
320,35	2,803
320,56	0,282
320,77	2,146
320,98	6,827
321,19	4,513
321,40	2,752
321,62	4,209
321,83	4,109
322,04	3,921
322,25	4,090
322,46	6,528
322,67	4,470
322,88	3,891
323,09	2,409
323,30	3,158
323,51	5,094
323,72	3,690
323,93	0,672
324,14	3,837
324,35	-1,064
324,56	1,020
324,77	1,208
324,99	2,556
325,20	-0,598
325,41	2,548
325,62	5,429
325,83	-1,231
326,04	1,697
326,25	2,641
326,46	1,395
326,67	3,665
326,88	4,992
327,09	0,967
327,30	1,492
327,51	4,061
327,72	3,051
327,93	3,417
328,14	0,730
328,35	1,496
328,56	4,762
328,77	0,885
328,98	4,191
329,19	2,746
329,40	3,164
329,61	2,026
329,82	1,842
330,04	1,354
330,25	1,297
330,46	2,889
330,67	1,769
330,88	1,731
331,09	2,922
331,30	3,246
331,51	1,862
331,72	1,775
331,93	5,313
332,14	2,221
332,35	1,815
332,56	6,531
332,77	3,375
332,98	-0,358
333,19	0,693
333,40	3,341
333,61	1,983
333,82	5,524
334,03	1,905
334,24	4,512
334,45	2,610
334,66	3,710
334,87	2,184
335,08	-0,600
335,29	1,812
335,50	2,018
335,71	0,586
335,92	6,518
336,13	7,839
336,34	-4,420
336,55	3,085
336,76	6,112
336,97	3,369
337,18	1,249
337,39	2,178
337,60	5,423
337,81	2,132
338,02	1,242
338,23	1,499
338,44	3,187
338,65	4,592
338,86	1,940
339,07	1,287
339,28	5,379
339,49	1,995
339,70	-0,270
339,91	4,388
340,11	5,758
340,32	-0,804
340,53	0,278
340,74	-1,220
340,95	1,485
341,16	5,401
341,37	-0,262
341,58	0,591
341,79	1,163
342,00	2,399
342,21	1,268
342,42	1,234
342,63	0,964
342,84	2,416
343,05	3,914
343,26	4,332
343,47	2,664
343,68	1,843
343,89	2,340
344,10	3,201
344,31	2,418
344,52	1,988
344,73	1,895
344,94	1,480
345,14	2,629
345,35	4,323
345,56	3,822
345,77	2,984
345,98	2,973
346,19	1,434
346,40	4,651
346,61	1,988
346,82	3,840
347,03	1,249
347,24	5,675
347,45	0,458
347,66	6,415
347,87	-1,704
348,08	5,417
348,28	-2,670
348,49	1,452
348,70	4,709
348,91	4,646
349,12	3,205
349,33	14,126
349,54	5,030
349,75	6,681
349,96	1,266
350,17	5,642
350,38	2,846
350,59	3,342
350,80	3,074
351,00	6,059
351,21	6,962
351,42	0,806
351,63	0,236
351,84	3,190
352,05	4,581
352,26	2,756
352,47	1,062
352,68	6,504
352,89	7,139
353,09	3,213
353,30	-0,350
353,51	3,486
353,72	6,496
353,93	6,060
354,14	1,275
354,35	4,578
354,56	2,257
354,77	2,833
354,98	1,147
355,18	5,212
355,39	7,605
355,60	2,002
355,81	2,533
356,02	2,719
356,23	3,748
356,44	5,468
356,65	3,629
356,85	9,280
357,06	7,367
357,27	5,404
357,48	2,680
357,69	3,223
357,90	0,921
358,11	-0,454
358,32	0,906
358,52	6,674
358,73	2,404
358,94	1,627
359,15	3,410
359,36	3,864
359,57	1,407
359,78	3,937
359,98	0,071
360,19	-1,043
360,40	1,685
360,61	6,133
360,82	1,755
361,03	4,947
361,24	6,252
361,44	2,280
361,65	3,977
361,86	1,270
362,07	2,286
362,28	2,035
362,49	2,506
362,70	4,484
362,90	5,829
363,11	0,960
363,32	0,720
363,53	3,324
363,74	6,648
363,95	5,208
364,15	4,872
364,36	7,053
364,57	5,820
364,78	2,359
364,99	2,853
365,20	7,270
365,40	8,134
365,61	0,618
365,82	1,079
366,03	2,596
366,24	4,811
366,45	1,635
366,65	1,158
366,86	2,539
367,07	1,215
367,28	0,994
367,49	4,969
367,69	3,748
367,90	4,044
368,11	1,930
368,32	2,843
368,53	5,100
368,73	4,086
368,94	1,721
369,15	3,365
369,36	3,544
369,57	3,399
369,78	0,261
369,98	4,622
370,19	6,603
370,40	2,187
370,61	3,430
370,82	2,503
371,02	2,559
371,23	7,772
371,44	3,389
371,65	3,102
371,85	4,896
372,06	2,043
372,27	3,490
372,48	1,685
372,69	1,388
372,89	0,989
373,10	3,172
373,31	2,374
373,52	3,725
373,73	7,537
373,93	2,699
374,14	1,421
374,35	4,498
374,56	4,514
374,76	1,392
374,97	-0,865
375,18	4,286
375,39	4,962
375,60	5,581
375,80	1,815
376,01	-0,359
376,22	2,859
376,43	2,066
376,63	3,235
376,84	-0,082
377,05	2,941
377,26	2,506
377,46	2,468
377,67	2,706
377,88	2,479
378,09	3,846
378,29	1,833
378,50	5,646
378,71	4,166
378,92	1,942
379,12	0,831
379,33	2,982
379,54	2,969
379,75	4,528
379,95	0,695
380,16	4,328
380,37	5,294
380,58	3,945
380,78	5,243
380,99	1,947
381,20	2,847
381,41	6,943
381,61	7,856
381,82	3,734
382,03	4,196
382,24	4,754
382,44	5,111
382,65	3,840
382,86	3,393
383,06	4,553
383,27	5,723
383,48	2,505
383,69	4,845
383,89	6,067
384,10	2,822
384,31	3,104
384,51	7,819
384,72	3,741
384,93	2,347
385,14	5,014
385,34	5,434
385,55	2,663
385,76	1,615
385,96	7,985
386,17	3,807
386,38	7,400
386,59	4,864
386,79	4,276
387,00	6,705
387,21	2,916
387,41	3,517
387,62	1,746
387,83	7,294
388,03	4,424
388,24	-0,887
388,45	6,803
388,66	3,745
388,86	5,381
389,07	2,720
389,28	8,729
389,48	5,596
389,69	3,770
389,90	5,682
390,10	1,730
390,31	7,968
390,52	-1,083
390,72	1,741
390,93	6,807
391,14	1,342
391,34	4,304
391,55	6,550
391,76	10,095
391,96	7,984
392,17	3,464
392,38	8,617
392,58	5,682
392,79	4,584
393,00	4,518
393,20	1,756
393,41	5,275
393,62	2,829
393,82	7,480
394,03	5,286
394,24	7,989
394,44	5,682
394,65	6,488
394,86	4,943
395,06	7,957
395,27	3,851
395,48	5,982
395,68	9,138
395,89	6,134
396,10	6,772
396,30	5,585
396,51	3,038
396,72	5,511
396,92	2,475
397,13	7,480
397,34	0,578
397,54	7,412
397,75	5,226
397,95	2,848
398,16	7,540
398,37	2,769
398,57	4,301
398,78	6,488
398,99	9,268
399,19	8,305
399,40	8,746
399,60	6,081
399,81	7,766
400,02	6,515
400,22	8,650
400,43	4,494
400,64	5,871
400,84	6,893
401,05	7,289
401,25	7,915
401,46	10,152
401,67	10,012
401,87	6,219
402,08	5,345
402,29	5,973
402,49	11,390
402,70	10,711
402,90	5,777
403,11	8,231
403,32	10,701
403,52	7,727
403,73	8,944
403,93	12,516
404,14	11,562
404,35	12,558
404,55	4,859
404,76	7,004
404,96	11,071
405,17	10,890
405,38	12,066
405,58	8,113
405,79	13,567
405,99	14,724
406,20	7,060
406,40	8,022
406,61	12,392
406,82	9,164
407,02	13,039
407,23	6,118
407,43	9,996
407,64	5,983
407,85	9,104
408,05	7,389
408,26	17,668
408,46	11,878
408,67	8,916
408,87	9,671
409,08	11,637
409,29	17,362
409,49	13,060
409,70	8,947
409,90	14,050
410,11	10,358
410,31	14,933
410,52	8,384
410,72	10,790
410,93	14,047
411,14	8,979
411,34	8,511
411,55	14,201
411,75	12,668
411,96	12,076
412,16	12,975
412,37	11,829
412,57	11,038
412,78	12,826
412,99	14,309
413,19	16,278
413,40	14,222
413,60	12,626
413,81	10,515
414,01	12,689
414,22	11,360
414,42	14,734
414,63	7,224
414,83	17,429
415,04	19,176
415,24	11,918
415,45	11,656
415,65	16,962
415,86	11,134
416,07	14,677
416,27	13,864
416,48	15,910
416,68	15,797
416,89	10,791
417,09	15,550
417,30	18,286
417,50	17,212
417,71	15,196
417,91	14,922
418,12	14,401
418,32	15,262
418,53	11,505
418,73	16,772
418,94	11,058
419,14	15,252
419,35	10,057
419,55	12,808
419,76	14,724
419,96	12,405
420,17	13,298
420,37	12,917
420,58	18,750
420,78	17,875
420,99	15,777
421,19	16,793
421,40	16,906
421,60	18,071
421,81	14,447
422,01	14,569
422,22	14,171
422,42	20,259
422,63	15,807
422,83	12,391
423,04	19,944
423,24	18,776
423,45	13,492
423,65	15,639
423,86	20,157
424,06	20,524
424,27	13,511
424,47	13,213
424,67	11,879
424,88	16,252
425,08	18,686
425,29	24,067
425,49	15,206
425,70	12,288
425,90	15,026
426,11	15,959
426,31	15,509
426,52	14,933
426,72	15,202
426,93	12,195
427,13	20,698
427,33	18,170
427,54	17,432
427,74	20,112
427,95	20,193
428,15	14,294
428,36	18,870
428,56	17,084
428,77	21,418
428,97	15,288
429,18	15,313
429,38	15,187
429,58	20,754
429,79	17,481
429,99	15,464
430,20	11,650
430,40	21,336
430,61	19,091
430,81	14,041
431,01	14,073
431,22	22,839
431,42	20,012
431,63	13,807
431,83	15,706
432,04	18,035
432,24	17,570
432,44	14,683
432,65	14,859
432,85	16,430
433,06	20,059
433,26	18,239
433,47	15,123
433,67	15,756
433,87	14,382
434,08	11,993
434,28	14,756
434,49	18,535
434,69	21,906
434,89	17,667
435,10	13,939
435,30	20,551
435,51	13,536
435,71	16,995
435,91	13,492
436,12	19,711
436,32	15,797
436,53	14,837
436,73	15,131
436,93	20,267
437,14	18,750
437,34	17,105
437,55	15,095
437,75	12,522
437,95	20,552
438,16	15,612
438,36	16,445
438,57	12,404
438,77	13,491
438,97	19,368
439,18	21,070
439,38	17,087
439,58	12,809
439,79	15,871
439,99	16,408
440,20	17,480
440,40	17,839
440,60	16,917
440,81	18,941
441,01	21,177
441,21	17,459
441,42	19,949
441,62	17,853
441,83	19,401
442,03	18,590
442,23	21,283
442,44	15,322
442,64	18,553
442,84	13,114
443,05	16,373
443,25	14,137
443,45	16,890
443,66	17,967
443,86	16,747
444,06	19,210
444,27	18,453
444,47	18,980
444,67	13,889
444,88	20,029
445,08	19,306
445,28	18,772
445,49	15,528
445,69	17,081
445,90	17,996
446,10	21,310
446,30	19,014
446,51	18,975
446,71	22,085
446,91	25,060
447,12	22,564
447,32	18,435
447,52	19,476
447,72	15,766
447,93	17,153
448,13	13,933
448,33	24,533
448,54	20,564
448,74	13,968
448,94	22,534
449,15	23,288
449,35	18,312
449,55	19,245
449,76	25,614
449,96	19,575
450,16	19,120
450,37	14,906
450,57	16,849
450,77	16,185
450,98	18,155
451,18	21,857
451,38	17,538
451,58	21,588
451,79	17,443
451,99	19,477
452,19	19,542
452,40	22,296
452,60	12,988
452,80	18,353
453,00	17,655
453,21	22,405
453,41	22,202
453,61	19,611
453,82	23,068
454,02	15,409
454,22	23,781
454,42	25,619
454,63	18,006
454,83	18,916
455,03	22,391
455,24	18,690
455,44	19,734
455,64	20,498
455,84	15,063
456,05	20,375
456,25	20,056
456,45	20,593
456,65	16,073
456,86	22,880
457,06	20,430
457,26	21,677
457,47	23,247
457,67	21,213
457,87	15,590
458,07	18,313
458,28	26,020
458,48	21,406
458,68	11,709
458,88	17,916
459,09	19,682
459,29	20,997
459,49	17,519
459,69	22,971
459,90	22,269
460,10	16,745
460,30	20,886
460,50	18,982
460,71	22,616
460,91	17,399
461,11	21,106
461,31	17,698
461,52	25,120
461,72	21,188
461,92	19,422
462,12	31,901
462,32	17,689
462,53	18,897
462,73	17,512
462,93	19,855
463,13	15,817
463,34	18,292
463,54	19,970
463,74	23,745
463,94	18,984
464,14	19,004
464,35	14,855
464,55	23,341
464,75	23,022
464,95	20,728
465,16	17,924
465,36	21,354
465,56	18,261
465,76	19,494
465,96	17,210
466,17	19,321
466,37	16,293
466,57	23,975
466,77	16,680
466,97	19,845
467,18	23,228
467,38	22,942
467,58	19,119
467,78	23,610
467,98	23,348
468,19	23,139
468,39	22,241
468,59	22,228
468,79	23,358
468,99	23,275
469,19	16,226
469,40	24,061
469,60	9,613
469,80	17,022
470,00	22,648
470,20	20,007
470,41	18,089
470,61	19,431
470,81	19,235
471,01	20,762
471,21	21,349
471,41	18,524
471,62	15,342
471,82	15,633
472,02	17,781
472,22	18,275
472,42	20,384
472,62	20,499
472,83	19,054
473,03	22,315
473,23	17,563
473,43	23,324
473,63	21,342
473,83	22,141
474,03	19,287
474,24	23,299
474,44	17,708
474,64	19,108
474,84	18,192
475,04	23,504
475,24	19,769
475,45	19,117
475,65	19,420
475,85	25,240
476,05	13,715
476,25	21,178
476,45	20,423
476,65	27,856
476,85	21,748
477,06	23,756
477,26	18,778
477,46	20,197
477,66	19,531
477,86	24,107
478,06	19,565
478,26	25,874
478,46	20,843
478,67	19,038
478,87	22,016
479,07	18,602
479,27	23,910
479,47	20,785
479,67	15,986
479,87	20,148
480,07	22,199
480,28	17,511
480,48	16,885
480,68	23,887
480,88	24,046
481,08	19,721
481,28	21,886
481,48	20,936
481,68	19,038
481,88	17,818
482,08	19,577
482,29	21,757
482,49	16,847
482,69	20,725
482,89	20,128
483,09	21,680
483,29	19,620
483,49	16,620
483,69	22,094
483,89	19,370
484,09	16,997
484,29	17,317
484,50	18,938
484,70	20,887
484,90	17,338
485,10	18,701
485,30	22,167
485,50	23,593
485,70	20,119
485,90	18,241
486,10	16,918
486,30	18,371
486,50	18,301
486,70	20,502
486,90	20,520
487,10	20,415
487,30	18,362
487,51	20,125
487,71	15,374
487,91	19,155
488,11	20,302
488,31	15,198
488,51	19,191
488,71	19,953
488,91	22,417
489,11	17,810
489,31	19,613
489,51	18,448
489,71	18,622
489,91	20,409
490,11	17,152
490,31	19,378
490,51	18,648
490,71	17,606
490,91	17,359
491,11	19,028
491,31	20,528
491,51	15,566
491,72	18,910
491,92	18,069
492,12	22,756
492,32	20,235
492,52	22,271
492,72	19,942
492,92	19,691
493,12	21,445
493,32	19,148
493,52	18,446
493,72	18,662
493,92	20,137
494,12	20,057
494,32	20,772
494,52	19,336
494,72	18,355
494,92	19,601
495,12	19,109
495,32	20,498
495,52	18,551
495,72	20,701
495,92	22,855
496,12	22,157
496,32	19,763
496,52	18,480
496,72	19,461
496,92	21,684
497,12	20,627
497,32	21,237
497,52	20,719
497,72	23,397
497,92	21,478
498,12	19,186
498,32	19,156
498,52	19,990
498,72	16,286
498,92	18,088
499,12	23,608
499,32	16,259
499,52	19,221
499,72	19,573
499,92	21,957
500,12	21,970
500,32	22,672
500,52	19,044
500,72	25,215
500,91	23,694
501,11	21,053
501,31	15,934
501,51	20,943
501,71	21,314
501,91	21,432
502,11	18,503
502,31	19,857
502,51	22,341
502,71	19,591
502,91	19,986
503,11	19,224
503,31	19,244
503,51	17,869
503,71	17,845
503,91	20,736
504,11	20,960
504,31	21,126
504,51	19,817
504,71	22,802
504,91	20,037
505,10	18,479
505,30	20,857
505,50	21,166
505,70	20,984
505,90	20,197
506,10	16,155
506,30	19,773
506,50	21,463
506,70	24,213
506,90	17,133
507,10	19,832
507,30	19,525
507,50	19,650
507,70	19,519
507,89	20,647
508,09	17,444
508,29	19,775
508,49	18,589
508,69	20,014
508,89	18,686
509,09	20,376
509,29	18,268
509,49	23,208
509,69	21,373
509,89	19,948
510,09	14,934
510,28	20,357
510,48	18,587
510,68	17,790
510,88	15,516
511,08	16,133
511,28	19,867
511,48	19,076
511,68	20,266
511,88	16,808
512,07	17,796
512,27	19,610
512,47	17,714
512,67	17,607
512,87	17,615
513,07	18,414
513,27	16,805
513,47	17,210
513,67	14,831
513,86	17,957
514,06	18,132
514,26	19,076
514,46	21,725
514,66	17,007
514,86	19,274
515,06	21,992
515,26	18,102
515,45	16,188
515,65	16,794
515,85	20,548
516,05	17,452
516,25	18,037
516,45	20,150
516,65	19,302
516,84	20,389
517,04	19,440
517,24	16,498
517,44	18,119
517,64	20,797
517,84	20,771
518,04	16,309
518,23	20,663
518,43	22,683
518,63	18,955
518,83	15,963
519,03	17,593
519,23	18,548
519,42	18,933
519,62	16,801
519,82	19,879
520,02	17,130
520,22	16,680
520,42	16,635
520,61	17,792
520,81	18,862
521,01	19,749
521,21	17,209
521,41	19,149
521,61	18,231
521,80	14,535
522,00	18,128
522,20	17,884
522,40	18,002
522,60	17,247
522,79	16,846
522,99	18,178
523,19	15,400
523,39	15,658
523,59	16,726
523,78	20,680
523,98	17,972
524,18	17,292
524,38	16,244
524,58	15,484
524,77	20,191
524,97	17,624
525,17	16,570
525,37	19,036
525,57	21,631
525,76	15,766
525,96	17,852
526,16	16,140
526,36	17,022
526,56	18,246
526,75	13,667
526,95	17,058
527,15	16,907
527,35	16,242
527,55	16,958
527,74	20,507
527,94	14,118
528,14	16,746
528,34	16,256
528,53	16,199
528,73	16,913
528,93	18,673
529,13	15,288
529,32	17,700
529,52	18,885
529,72	15,160
529,92	15,285
530,12	14,859
530,31	14,173
530,51	18,794
530,71	16,806
530,91	20,228
531,10	10,675
531,30	16,711
531,50	13,104
531,70	21,234
531,89	16,791
532,09	14,613
532,29	14,539
532,49	14,529
532,68	15,007
532,88	15,163
533,08	14,355
533,28	12,989
533,47	15,944
533,67	17,521
533,87	12,155
534,06	21,386
534,26	16,675
534,46	14,130
534,66	14,063
534,85	16,219
535,05	13,669
535,25	14,883
535,45	12,307
535,64	17,660
535,84	14,440
536,04	12,262
536,23	14,795
536,43	18,029
536,63	16,490
536,83	15,236
537,02	13,679
537,22	13,573
537,42	15,316
537,61	15,500
537,81	17,403
538,01	19,770
538,20	16,241
538,40	13,620
538,60	14,796
538,80	13,591
538,99	14,257
539,19	14,565
539,39	14,069
539,58	14,301
539,78	11,964
539,98	14,024
540,17	11,609
540,37	11,631
540,57	12,397
540,76	13,333
540,96	9,535
541,16	15,790
541,36	11,519
541,55	9,486
541,75	8,965
541,95	10,373
542,14	10,277
542,34	9,225
542,54	9,291
542,73	10,819
542,93	11,299
543,13	10,706
543,32	9,731
543,52	10,974
543,72	8,847
543,91	10,414
544,11	9,662
544,31	9,481
544,50	8,375
544,70	10,088
544,89	8,779
545,09	12,054
545,29	11,091
545,48	10,168
545,68	10,860
545,88	10,717
546,07	9,574
546,27	11,402
546,47	12,513
546,66	12,436
546,86	14,356
547,06	12,185
547,25	10,137
547,45	12,345
547,64	12,293
547,84	14,819
548,04	13,769
548,23	13,426
548,43	13,193
548,63	15,440
548,82	14,365
549,02	11,427
549,21	14,201
549,41	13,651
549,61	13,338
549,80	12,550
550,00	13,678
550,20	12,010
550,39	12,439
550,59	12,799
550,78	14,865
550,98	11,033
551,18	13,629
551,37	15,688
551,57	14,756
551,76	14,092
551,96	13,642
552,16	14,178
552,35	13,837
552,55	14,033
552,74	14,806
552,94	14,400
553,14	13,247
553,33	14,214
553,53	13,528
553,72	13,786
553,92	13,991
554,12	14,916
554,31	13,770
554,51	14,585
554,70	10,376
554,90	14,258
555,09	15,507
555,29	14,614
555,49	15,682
555,68	16,453
555,88	14,233
556,07	14,354
556,27	14,919
556,46	15,284
556,66	11,973
556,86	16,788
557,05	14,392
557,25	12,736
557,44	15,018
557,64	14,446
557,83	14,210
558,03	13,616
558,22	14,796
558,42	15,195
558,62	15,904
558,81	15,305
559,01	14,755
559,20	17,421
559,40	14,380
559,59	13,708
559,79	11,445
559,98	15,907
560,18	14,442
560,37	14,009
560,57	14,769
560,76	12,357
560,96	14,564
561,16	15,184
561,35	15,700
561,55	18,743
561,74	14,156
561,94	15,676
562,13	14,492
562,33	17,737
562,52	13,122
562,72	15,053
562,91	11,696
563,11	12,449
563,30	16,281
563,50	13,383
563,69	13,845
563,89	13,879
564,08	16,839
564,28	12,736
564,47	15,700
564,67	12,868
564,86	13,901
565,06	13,438
565,25	14,813
565,45	13,438
565,64	17,654
565,84	13,739
566,03	11,243
566,23	11,600
566,42	13,540
566,62	12,860
566,81	13,962
567,01	12,716
567,20	15,593
567,40	14,015
567,59	11,590
567,79	14,166
567,98	16,267
568,18	13,981
568,37	14,341
568,57	15,179
568,76	16,485
568,96	13,813
569,15	13,897
569,35	14,968
569,54	17,985
569,73	16,222
569,93	13,099
570,12	14,745
570,32	13,024
570,51	14,276
570,71	14,582
570,90	16,291
571,10	12,944
571,29	12,312
571,49	12,978
571,68	14,699
571,87	15,188
572,07	15,531
572,26	11,496
572,46	13,466
572,65	13,957
572,85	12,361
573,04	14,503
573,24	13,415
573,43	16,675
573,62	15,965
573,82	15,246
574,01	13,857
574,21	13,260
574,40	13,442
574,60	12,394
574,79	15,669
574,98	14,600
575,18	15,820
575,37	12,834
575,57	14,958
575,76	14,619
575,96	14,561
576,15	14,079
576,34	15,706
576,54	15,669
576,73	14,409
576,93	14,159
577,12	14,272
577,31	14,514
577,51	12,399
577,70	14,253
577,90	14,711
578,09	14,035
578,28	14,756
578,48	14,493
578,67	15,453
578,87	16,056
579,06	13,827
579,25	14,118
579,45	16,377
579,64	12,873
579,84	14,565
580,03	15,489
580,22	15,974
580,42	13,418
580,61	15,358
580,81	14,922
581,00	16,040
581,19	14,639
581,39	14,247
581,58	14,543
581,77	15,729
581,97	15,346
582,16	14,995
582,35	12,818
582,55	13,934
582,74	17,225
582,94	15,432
583,13	12,953
583,32	14,767
583,52	14,607
583,71	14,493
583,90	16,105
584,10	14,611
584,29	15,212
584,48	14,422
584,68	15,368
584,87	15,926
585,06	16,009
585,26	14,708
585,45	15,134
585,65	16,055
585,84	15,826
586,03	15,783
586,23	13,856
586,42	14,533
586,61	16,346
586,81	15,341
587,00	14,138
587,19	15,271
587,39	17,752
587,58	16,792
587,77	16,450
587,97	16,551
588,16	16,153
588,35	17,025
588,54	15,902
588,74	15,221
588,93	18,923
589,12	16,172
589,32	15,468
589,51	16,022
589,70	15,010
589,90	16,521
590,09	14,880
590,28	20,176
590,48	16,574
590,67	16,033
590,86	16,352
591,06	16,725
591,25	18,075
591,44	16,994
591,63	16,949
591,83	17,481
592,02	17,232
592,21	14,757
592,41	16,996
592,60	17,495
592,79	18,614
592,98	16,542
593,18	17,683
593,37	15,208
593,56	17,713
593,76	18,212
593,95	17,452
594,14	14,615
594,33	18,789
594,53	17,521
594,72	17,756
594,91	19,266
595,10	19,119
595,30	18,265
595,49	17,716
595,68	19,623
595,88	17,294
596,07	18,265
596,26	17,200
596,45	17,306
596,65	16,871
596,84	16,451
597,03	19,732
597,22	18,979
597,42	20,210
597,61	18,253
597,80	18,517
597,99	17,377
598,19	19,217
598,38	19,088
598,57	17,282
598,76	18,873
598,95	19,526
599,15	19,642
599,34	19,534
599,53	18,009
599,72	18,970
599,92	20,959
600,11	19,545
600,30	18,792
600,49	21,503
600,69	18,072
600,88	19,382
601,07	19,670
601,26	20,526
601,45	19,191
601,65	18,151
601,84	20,573
602,03	18,121
602,22	20,155
602,42	21,345
602,61	21,067
602,80	20,377
602,99	19,570
603,18	18,820
603,38	20,112
603,57	19,106
603,76	19,524
603,95	18,592
604,14	20,600
604,34	20,236
604,53	18,959
604,72	20,889
604,91	19,955
605,10	20,251
605,29	19,322
605,49	18,180
605,68	20,052
605,87	20,919
606,06	19,094
606,25	19,306
606,45	20,687
606,64	19,097
606,83	20,235
607,02	20,043
607,21	21,353
607,40	21,100
607,60	18,155
607,79	18,847
607,98	18,323
608,17	18,718
608,36	18,437
608,55	19,860
608,75	20,602
608,94	19,009
609,13	17,773
609,32	17,716
609,51	16,820
609,70	15,854
609,89	19,318
610,09	17,277
610,28	19,808
610,47	18,087
610,66	16,693
610,85	16,901
611,04	17,410
611,23	16,090
611,43	17,491
611,62	14,762
611,81	16,593
612,00	17,423
612,19	17,432
612,38	16,759
612,57	18,723
612,77	17,905
612,96	18,043
613,15	17,813
613,34	19,333
613,53	19,532
613,72	19,275
613,91	19,751
614,10	18,550
614,29	21,233
614,49	17,945
614,68	19,010
614,87	20,735
615,06	21,560
615,25	19,342
615,44	21,434
615,63	19,741
615,82	17,534
616,01	19,960
616,21	21,132
616,40	22,015
616,59	23,087
616,78	21,273
616,97	20,802
617,16	20,329
617,35	21,465
617,54	22,078
617,73	22,124
617,92	21,859
618,11	21,503
618,31	18,168
618,50	22,165
618,69	21,131
618,88	20,457
619,07	19,971
619,26	19,747
619,45	21,275
619,64	19,567
619,83	19,646
620,02	20,751
620,21	21,444
620,40	21,594
620,59	22,200
620,78	18,828
620,97	22,921
621,17	23,376
621,36	20,967
621,55	20,378
621,74	22,159
621,93	21,166
622,12	20,790
622,31	20,364
622,50	20,574
622,69	23,868
622,88	22,004
623,07	21,762
623,26	21,165
623,45	25,828
623,64	20,826
623,83	21,677
624,02	24,384
624,21	23,970
624,40	22,181
624,59	20,668
624,78	22,417
624,97	23,950
625,16	21,147
625,35	20,081
625,54	21,308
625,73	21,045
625,92	21,347
626,12	23,318
626,31	23,699
626,50	22,918
626,69	21,854
626,88	21,011
627,07	24,018
627,26	20,685
627,45	20,836
627,64	21,758
627,83	22,642
628,02	22,052
628,21	21,269
628,40	23,757
628,59	23,497
628,78	20,276
628,97	22,535
629,16	20,585
629,35	23,874
629,54	23,571
629,73	22,735
629,92	22,362
630,10	21,737
630,29	21,599
630,48	22,712
630,67	21,337
630,86	23,041
631,05	22,818
631,24	24,833
631,43	20,330
631,62	23,507
631,81	23,461
632,00	21,971
632,19	20,529
632,38	23,977
632,57	23,258
632,76	21,518
632,95	22,637
633,14	24,172
633,33	24,019
633,52	22,188
633,71	23,070
633,90	22,812
634,09	23,076
634,28	22,801
634,47	20,561
634,66	21,804
634,85	23,095
635,04	25,213
635,22	22,403
635,41	22,622
635,60	24,068
635,79	25,428
635,98	20,862
636,17	24,195
636,36	23,454
636,55	22,880
636,74	21,195
636,93	24,274
637,12	24,486
637,31	23,616
637,50	22,096
637,69	22,993
637,87	24,236
638,06	23,037
638,25	23,709
638,44	24,260
638,63	20,777
638,82	22,623
639,01	23,527
639,20	24,181
639,39	24,607
639,58	22,200
639,77	23,588
639,95	23,080
640,14	24,375
640,33	23,055
640,52	23,527
640,71	24,019
640,90	24,270
641,09	23,576
641,28	22,708
641,47	23,916
641,66	24,896
641,84	24,094
642,03	22,899
642,22	23,979
642,41	26,464
642,60	24,323
642,79	23,691
642,98	24,711
643,17	23,886
643,35	22,740
643,54	23,100
643,73	23,744
643,92	24,800
644,11	24,480
644,30	21,892
644,49	24,302
644,67	23,563
644,86	21,398
645,05	24,966
645,24	22,708
645,43	24,816
645,62	24,178
645,81	22,649
645,99	25,335
646,18	24,195
646,37	21,483
646,56	23,773
646,75	24,839
646,94	24,525
647,13	24,778
647,31	23,163
647,50	22,201
647,69	26,264
647,88	26,531
648,07	24,441
648,26	27,214
648,44	25,402
648,63	23,172
648,82	23,911
649,01	23,457
649,20	22,052
649,38	23,795
649,57	22,561
649,76	22,322
649,95	24,260
650,14	23,162
650,33	24,035
650,51	23,484
650,70	26,352
650,89	25,269
651,08	22,431
651,27	23,486
651,45	24,048
651,64	23,561
651,83	25,237
652,02	22,825
652,21	24,294
652,39	24,965
652,58	25,403
652,77	24,488
652,96	23,217
653,15	25,555
653,33	23,863
653,52	25,289
653,71	26,210
653,90	25,112
654,09	23,928
654,27	24,853
654,46	26,710
654,65	24,190
654,84	24,392
655,02	25,242
655,21	26,233
655,40	25,472
655,59	24,706
655,77	26,303
655,96	25,708
656,15	24,693
656,34	25,868
656,53	24,803
656,71	26,056
656,90	24,600
657,09	26,979
657,28	25,279
657,46	23,959
657,65	25,372
657,84	23,950
658,03	25,229
658,21	24,243
658,40	23,809
658,59	23,876
658,78	24,941
658,96	25,820
659,15	24,047
659,34	25,251
659,52	23,678
659,71	24,642
659,90	22,726
660,09	25,312
660,27	23,366
660,46	25,457
660,65	24,267
660,84	21,813
661,02	23,876
661,21	23,926
661,40	22,025
661,58	24,766
661,77	24,340
661,96	21,459
662,15	25,170
662,33	24,324
662,52	24,896
662,71	24,146
662,89	21,282
663,08	23,107
663,27	23,154
663,45	24,050
663,64	24,047
663,83	23,494
664,02	22,525
664,20	24,014
664,39	24,437
664,58	23,552
664,76	23,169
664,95	23,332
665,14	23,929
665,32	22,898
665,51	23,890
665,70	23,862
665,88	25,899
666,07	23,503
666,26	25,627
666,44	22,612
666,63	21,349
666,82	23,385
667,00	24,495
667,19	21,910
667,38	24,727
667,56	24,759
667,75	22,612
667,94	23,396
668,12	22,672
668,31	24,352
668,50	24,829
668,68	24,702
668,87	22,413
669,06	22,426
669,24	24,466
669,43	22,211
669,62	21,160
669,80	21,964
669,99	23,851
670,18	23,928
670,36	22,553
670,55	23,367
670,74	23,685
670,92	22,047
671,11	23,863
671,29	22,028
671,48	22,670
671,67	23,621
671,85	25,022
672,04	21,883
672,23	21,486
672,41	23,366
672,60	22,585
672,78	23,580
672,97	23,382
673,16	24,430
673,34	23,208
673,53	21,161
673,71	23,017
673,90	25,002
674,09	22,220
674,27	21,401
674,46	23,943
674,64	25,329
674,83	23,376
675,02	21,122
675,20	23,644
675,39	20,964
675,57	23,719
675,76	21,921
675,95	24,880
676,13	24,590
676,32	24,358
676,50	23,221
676,69	21,225
676,88	21,350
677,06	22,728
677,25	23,197
677,43	25,272
677,62	22,656
677,80	22,406
677,99	23,969
678,18	24,499
678,36	23,375
678,55	22,299
678,73	23,262
678,92	23,419
679,10	23,211
679,29	23,244
679,48	20,959
679,66	22,704
679,85	23,888
680,03	22,719
680,22	22,993
680,40	22,101
680,59	22,654
680,77	23,333
680,96	23,153
681,15	21,880
681,33	24,153
681,52	23,079
681,70	23,558
681,89	25,622
682,07	24,372
682,26	22,586
682,44	22,890
682,63	24,078
682,81	22,954
683,00	23,869
683,18	22,004
683,37	24,202
683,55	23,743
683,74	23,153
683,92	28,987
684,11	24,265
684,29	24,431
684,48	21,100
684,67	22,932
684,85	23,348
685,04	22,531
685,22	23,279
685,41	23,030
685,59	24,539
685,78	21,891
685,96	23,749
686,15	23,181
686,33	23,216
686,52	23,452
686,70	22,793
686,89	24,148
687,07	24,685
687,26	24,506
687,44	23,596
687,62	22,125
687,81	24,933
687,99	23,177
688,18	24,566
688,36	23,078
688,55	24,954
688,73	23,561
688,92	21,142
689,10	24,966
689,29	25,348
689,47	25,911
689,66	23,849
689,84	22,427
690,03	25,448
690,21	23,271
690,40	23,997
690,58	22,607
690,76	22,332
690,95	23,715
691,13	22,948
691,32	24,129
691,50	24,844
691,69	24,257
691,87	22,194
692,06	23,393
692,24	22,928
692,43	25,362
692,61	22,332
692,79	22,531
692,98	22,195
693,16	26,244
693,35	23,912
693,53	23,991
693,72	24,439
693,90	25,295
694,08	24,216
694,27	22,633
694,45	27,289
694,64	27,879
694,82	22,226
695,01	22,300
695,19	24,302
695,37	23,256
695,56	24,125
695,74	24,110
695,93	25,714
696,11	23,376
696,29	25,182
696,48	24,521
696,66	25,331
696,85	23,221
697,03	23,936
697,21	25,835
697,40	23,524
697,58	22,863
697,77	25,038
697,95	24,975
698,13	25,480
698,32	24,059
698,50	24,130
698,69	23,917
698,87	25,487
699,05	24,440
699,24	23,207
699,42	24,195
699,60	21,967
699,79	23,623
699,97	22,747
700,16	22,624
700,34	24,613
700,52	24,470
700,71	23,994
700,89	23,270
701,07	24,063
701,26	24,518
701,44	22,854
701,63	22,404
701,81	24,146
701,99	25,354
702,18	23,994
702,36	23,480
702,54	23,496
702,73	23,323
702,91	25,047
703,09	23,776
703,28	23,326
703,46	25,002
703,64	23,632
703,83	23,839
704,01	25,139
704,19	24,380
704,38	23,879
704,56	23,701
704,74	24,727
704,93	23,486
705,11	25,186
705,29	25,316
705,48	27,365
705,66	24,519
705,84	23,605
706,03	21,859
706,21	24,510
706,39	24,185
706,58	23,075
706,76	23,405
706,94	24,504
707,12	24,575
707,31	24,102
707,49	23,479
707,67	24,371
707,86	26,893
708,04	25,613
708,22	22,498
708,41	24,697
708,59	24,420
708,77	21,933
708,95	24,667
709,14	26,311
709,32	24,405
709,50	21,928
709,69	24,064
709,87	23,163
710,05	24,517
710,23	23,177
710,42	22,717
710,60	24,557
710,78	24,167
710,97	23,253
711,15	22,049
711,33	24,172
711,51	24,066
711,70	23,255
711,88	22,365
712,06	26,607
712,24	25,103
712,43	24,723
712,61	23,255
712,79	23,704
712,97	21,713
713,16	24,956
713,34	24,066
713,52	22,981
713,70	23,339
713,89	23,200
714,07	23,804
714,25	24,251
714,43	25,889
714,62	24,466
714,80	23,317
714,98	23,429
715,16	22,901
715,35	21,884
715,53	24,603
715,71	24,615
715,89	25,403
716,07	22,523
716,26	27,588
716,44	24,642
716,62	25,308
716,80	24,526
716,99	23,274
717,17	26,256
717,35	23,946
717,53	22,144
717,71	22,743
717,90	23,002
718,08	23,704
718,26	21,070
718,44	24,846
718,62	24,385
718,81	24,317
718,99	24,684
719,17	22,609
719,35	24,081
719,53	23,977
719,72	22,572
719,90	22,679
720,08	23,303
720,26	25,572
720,44	22,509
720,62	24,735
720,81	24,159
720,99	26,629
721,17	23,828
721,35	24,564
721,53	24,652
721,72	26,478
721,90	24,256
722,08	23,345
722,26	24,699
722,44	23,762
722,62	23,631
722,81	23,241
722,99	24,610
723,17	24,911
723,35	24,647
723,53	23,588
723,71	25,948
723,89	27,293
724,08	22,560
724,26	24,461
724,44	22,026
724,62	23,461
724,80	23,396
724,98	24,609
725,16	25,192
725,35	24,244
725,53	22,613
725,71	21,827
725,89	24,400
726,07	24,513
726,25	26,900
726,43	22,137
726,61	25,666
726,80	24,258
726,98	23,790
727,16	23,440
727,34	24,660
727,52	23,935
727,70	22,039
727,88	22,628
728,06	21,329
728,25	23,405
728,43	22,050
728,61	22,355
728,79	23,315
728,97	24,476
729,15	23,387
729,33	25,273
729,51	23,803
729,69	24,799
729,87	22,993
730,06	22,092
730,24	22,941
730,42	26,376
730,60	24,695
730,78	23,468
730,96	23,550
731,14	23,588
731,32	25,352
731,50	21,870
731,68	24,343
731,86	23,796
732,04	24,756
732,22	24,311
732,41	26,413
732,59	23,880
732,77	25,475
732,95	25,728
733,13	24,774
733,31	24,681
733,49	23,115
733,67	23,146
733,85	25,084
734,03	25,663
734,21	22,483
734,39	25,327
734,57	25,261
734,75	26,633
734,93	22,639
735,11	25,305
735,29	23,060
735,47	24,718
735,65	23,804
735,84	21,015
736,02	24,751
736,20	27,742
736,38	22,853
736,56	23,960
736,74	23,594
736,92	23,785
737,10	24,806
737,28	25,425
737,46	24,094
737,64	22,623
737,82	24,120
738,00	25,241
738,18	26,450
738,36	24,783
738,54	24,519
738,72	22,828
738,90	25,007
739,08	24,908
739,26	20,277
739,44	23,478
739,62	24,698
739,80	25,558
739,98	24,854
740,16	22,076
740,34	25,032
740,52	26,756
740,70	24,547
740,88	23,328
741,06	24,790
741,24	24,794
741,42	25,037
741,60	23,522
741,78	25,993
741,96	22,577
742,14	23,801
742,32	22,473
742,50	25,618
742,68	25,424
742,86	22,970
743,04	23,483
743,21	26,458
743,39	24,597
743,57	23,124
743,75	22,681
743,93	21,832
744,11	21,764
744,29	22,334
744,47	23,899
744,65	22,538
744,83	23,885
745,01	22,702
745,19	25,225
745,37	25,936
745,55	24,348
745,73	24,791
745,91	23,981
746,09	25,202
746,27	23,199
746,45	22,664
746,62	22,611
746,80	24,909
746,98	24,074
747,16	22,582
747,34	23,778
747,52	24,162
747,70	24,061
747,88	23,753
748,06	24,116
748,24	24,073
748,42	25,779
748,60	24,008
748,78	21,819
748,95	24,167
749,13	27,024
749,31	22,976
749,49	24,450
749,67	24,395
749,85	27,117
750,03	23,351
750,21	22,650
750,39	23,898
750,57	23,876
750,74	25,107
750,92	20,465
751,10	26,912
751,28	21,628
751,46	25,278
751,64	24,575
751,82	25,737
752,00	26,260
752,17	23,216
752,35	23,523
752,53	25,274
752,71	23,554
752,89	24,104
753,07	22,522
753,25	25,759
753,43	22,982
753,60	25,284
753,78	23,129
753,96	26,929
754,14	23,980
754,32	25,894
754,50	24,113
754,68	26,364
754,85	25,180
755,03	24,743
755,21	24,035
755,39	26,788
755,57	23,577
755,75	23,552
755,92	24,544
756,10	24,152
756,28	24,077
756,46	23,810
756,64	23,142
756,82	24,416
756,99	24,240
757,17	22,591
757,35	22,637
757,53	25,795
757,71	25,010
757,89	22,955
758,06	25,386
758,24	24,745
758,42	24,841
758,60	23,877
758,78	23,741
758,95	24,300
759,13	25,882
759,31	24,679
759,49	22,259
759,67	25,295
759,84	24,611
760,02	23,568
760,20	24,395
760,38	24,893
760,56	23,139
760,73	24,078
760,91	23,465
761,09	25,296
761,27	25,794
761,45	24,518
761,62	23,619
761,80	24,335
761,98	22,979
762,16	24,528
762,33	23,536
762,51	26,918
762,69	24,599
762,87	24,189
763,05	24,656
763,22	24,008
763,40	22,354
763,58	23,674
763,76	23,833
763,93	25,010
764,11	26,379
764,29	21,154
764,47	26,297
764,64	26,592
764,82	25,301
765,00	23,311
765,18	21,956
765,35	24,319
765,53	25,480
765,71	23,998
765,89	23,951
766,06	22,090
766,24	24,238
766,42	25,059
766,60	23,877
766,77	22,922
766,95	22,057
767,13	23,838
767,30	24,419
767,48	23,099
767,66	24,628
767,84	22,615
768,01	23,433
768,19	25,686
768,37	22,335
768,54	24,998
768,72	24,962
768,90	24,312
769,08	24,881
769,25	23,840
769,43	23,001
769,61	21,927
769,78	24,466
769,96	23,497
770,14	25,253
770,31	25,115
770,49	25,950
770,67	24,352
770,85	23,028
771,02	23,382
771,20	23,664
771,38	23,583
771,55	23,077
771,73	23,221
771,91	22,563
772,08	25,631
772,26	25,095
772,44	24,545
772,61	23,880
772,79	24,852
772,97	24,723
773,14	21,915
773,32	23,997
773,50	23,633
773,67	24,416
773,85	26,597
774,03	25,359
774,20	22,027
774,38	23,283
774,56	22,579
774,73	23,028
774,91	22,766
775,09	23,714
775,26	26,662
775,44	26,229
775,61	28,982
775,79	23,129
775,97	24,478
776,14	23,766
776,32	22,716
776,50	24,723
776,67	23,546
776,85	24,998
777,03	21,801
777,20	25,028
777,38	25,702
777,55	25,707
777,73	20,551
777,91	22,742
778,08	25,430
778,26	23,388
778,43	26,660
778,61	19,763
778,79	24,419
778,96	22,875
779,14	24,146
779,32	23,454
779,49	24,576
779,67	25,386
779,84	24,942
780,02	26,057
780,20	21,218
780,37	26,366
780,55	19,635
780,72	25,151
780,90	24,799
781,07	25,864
781,25	24,824
781,43	23,501
781,60	24,992
781,78	26,277
781,95	24,982
782,13	24,753
782,30	25,117
782,48	24,476
782,66	21,980
782,83	20,684
783,01	29,553
783,18	25,930
783,36	27,145
783,53	25,647
783,71	24,794
783,89	25,070
784,06	25,230
784,24	26,035
784,41	25,042
784,59	24,157
784,76	24,203
784,94	22,762
785,11	25,239
785,29	24,728
785,46	24,770
785,64	24,436
785,82	24,702
785,99	25,195
786,17	27,112
786,34	24,095
786,52	24,524
786,69	27,363
786,87	24,975
787,04	23,289
787,22	23,196
787,39	28,757
787,57	25,619
787,74	22,426
787,92	28,826
788,09	26,374
788,27	23,050
788,44	23,722
788,62	24,777
788,79	24,430
788,97	26,462
789,14	25,268
789,32	24,900
789,49	23,068
789,67	24,202
789,84	24,260
790,02	24,504
790,19	22,529
790,37	23,584
790,54	26,853
790,72	29,232
790,89	30,731
791,07	24,991
791,24	20,443
791,42	27,746
791,59	28,030
791,77	24,550
791,94	20,971
792,12	24,891
792,29	26,565
792,47	27,438
792,64	27,136
792,81	28,713
792,99	25,221
793,16	23,917
793,34	26,082
793,51	25,586
793,69	28,706
793,86	23,494
794,04	23,940
794,21	27,978
794,39	21,907
794,56	25,120
794,73	25,210
794,91	28,421
795,08	25,476
795,26	25,314
795,43	25,540
795,61	26,562
795,78	27,028
795,95	26,332
796,13	24,846
796,30	28,945
796,48	23,500
796,65	22,306
796,83	24,805
797,00	27,157
797,17	20,539
797,35	27,627
797,52	25,444
797,70	26,459
797,87	26,103
798,04	23,713
798,22	22,550
798,39	27,164
798,57	25,074
798,74	27,221
798,91	20,318
799,09	25,507
799,26	25,312
799,44	25,330
799,61	21,907
799,78	25,578
799,96	28,451
800,13	25,897
800,31	27,429
800,48	29,393
800,65	31,247
800,83	25,197
801,00	24,063
801,17	24,997
801,35	27,293
801,52	24,803
801,70	27,771
801,87	26,922
802,04	28,814
802,22	24,009
802,39	22,399
802,56	29,522
802,74	28,876
802,91	24,056
803,08	23,330
803,26	27,076
803,43	31,071
803,61	21,604
803,78	26,337
803,95	24,792
804,13	26,065
804,30	22,670
804,47	26,464
804,65	28,230
804,82	24,823
804,99	26,626
805,17	26,098
805,34	31,658
805,51	26,589
805,69	24,204
805,86	26,380
806,03	32,154
806,21	30,196
806,38	27,220
806,55	29,716
806,72	29,544
806,90	29,790
807,07	28,529
807,24	26,977
807,42	26,318
807,59	24,712
807,76	20,517
807,94	23,220
808,11	29,156
808,28	29,908
808,45	28,272
808,63	27,143
808,80	29,432
808,97	29,063
809,15	22,888
809,32	28,232
809,49	21,891
809,67	23,052
809,84	24,498
810,01	31,055
810,18	33,842
810,36	28,545
810,53	29,280
810,70	24,596
810,87	27,772
811,05	27,563
811,22	23,091
811,39	28,181
811,57	31,880
811,74	30,337
811,91	21,645
812,08	23,606
812,26	27,975
812,43	29,578
812,60	28,873
812,77	24,852
812,95	31,679
813,12	27,943
813,29	22,804
813,46	25,207
813,64	28,168
813,81	29,116
813,98	27,471
814,15	28,153
814,32	28,308
814,50	28,476
814,67	29,775
814,84	27,953
815,01	26,853
815,19	23,894
815,36	23,047
815,53	25,260
815,70	26,932
815,87	27,660
816,05	23,886
816,22	26,247
816,39	32,413
816,56	28,665
816,74	26,661
816,91	27,612
817,08	32,922
817,25	31,439
817,42	28,424
817,60	31,072
817,77	28,273
817,94	32,350
818,11	31,169
818,28	28,611
818,45	28,093
818,63	27,649
818,80	24,963
818,97	29,208
819,14	28,397
819,31	32,479
819,49	27,582
819,66	25,669
819,83	26,464
820,00	29,436
820,17	26,987
820,34	25,853
820,52	35,624
820,69	28,964
820,86	24,939
821,03	28,065
821,20	31,987
821,37	30,983
821,55	20,211
821,72	23,711
821,89	26,819
822,06	33,185
822,23	24,677
822,40	32,020
822,57	27,855
822,75	34,110
822,92	25,616
823,09	28,989
823,26	33,926
823,43	32,627
823,60	25,674
823,77	33,291
823,94	35,778
824,12	32,745
824,29	28,867
824,46	26,422
824,63	34,230
824,80	36,094
824,97	25,271
825,14	28,188
825,31	31,508
825,49	31,060
825,66	30,185
825,83	25,178
826,00	30,164
826,17	37,782
826,34	25,687
826,51	26,346
826,68	24,809
826,85	28,937
827,02	27,590
827,20	21,905
827,37	32,071
827,54	26,921
827,71	30,021
827,88	32,414
828,05	31,953
828,22	28,840
828,39	37,808
828,56	34,566
828,73	29,860
828,90	31,921
829,07	23,018
829,25	28,755
829,42	35,499
829,59	27,715
829,76	25,647
829,93	24,467
830,10	30,599
830,27	27,730
830,44	25,690
830,61	27,250
830,78	43,128
830,95	33,435
831,12	19,878
831,29	26,520
831,46	25,363
831,63	26,289
831,80	27,284
831,97	26,894
832,14	32,437
832,31	37,996
832,48	30,559
832,65	27,110
832,83	25,860
833,00	35,526
833,17	25,072
833,34	30,865
833,51	35,235
833,68	29,239
833,85	37,008
834,02	22,063
834,19	27,788
834,36	32,491
834,53	19,734
834,70	26,530
834,87	40,485
835,04	27,208
835,21	40,414
835,38	22,499
835,55	24,569
835,72	39,876
835,89	28,105
836,06	34,259
836,23	38,670
836,40	30,461
836,57	29,797
836,74	31,837
836,91	37,183
837,08	36,776
837,25	31,204
837,42	23,956
837,59	28,991
837,76	34,695
837,93	31,795
838,09	19,371
838,26	40,041
838,43	40,937
838,60	31,449
838,77	36,354
838,94	33,929
839,11	29,267
839,28	28,499
839,45	29,190
839,62	30,652
839,79	35,877
839,96	30,939
840,13	35,480
840,30	27,925
840,47	23,759
840,64	32,786
840,81	31,161
840,98	26,297
841,15	41,808
841,32	25,065
841,48	38,381
841,65	34,271
841,82	34,836
841,99	34,374
842,16	23,223
842,33	35,392
842,50	31,252
842,67	27,688
842,84	23,669
843,01	36,630
843,18	33,896
843,35	33,778
843,52	28,225
843,68	32,507
843,85	34,733
844,02	26,346
844,19	26,743
844,36	32,990
844,53	34,487
844,70	27,764
844,87	38,477
845,04	35,304
845,21	19,799
845,37	36,891
845,54	20,414
845,71	21,787
845,88	49,993
846,05	26,829
846,22	30,185
846,39	25,573
846,56	39,576
846,72	21,366
846,89	31,404
847,06	37,392
847,23	38,167
847,40	27,758
847,57	23,835
847,74	39,667
847,90	47,084
848,07	25,716
848,24	28,594
848,41	31,486
848,58	47,754
848,75	34,826
848,92	17,268
849,08	35,556
849,25	29,248
849,42	26,689
849,59	22,716
849,76	33,755
849,93	34,907
850,09	39,646
850,26	25,630
850,43	38,629
850,60	27,473
850,77	24,683
850,94	31,952
851,10	38,973
851,27	34,962
851,44	27,513
851,61	24,461
851,78	37,055
851,95	33,603
852,11	28,939
852,28	33,273
852,45	36,349
852,62	32,713
852,79	30,448
852,95	28,513
853,12	50,404
853,29	22,517
853,46	22,778
853,63	30,617
853,79	31,785
853,96	32,364
854,13	45,931
854,30	20,585
854,46	51,444
854,63	46,597
854,80	36,027
854,97	24,347
855,14	44,089
855,30	34,474
855,47	31,303
855,64	36,210
855,81	35,464
855,97	39,098
856,14	40,603
856,31	21,865
856,48	44,164
856,65	54,962
856,81	33,065
856,98	28,138
857,15	17,122
857,32	42,404
857,48	18,849
857,65	37,896
857,82	41,575
857,99	31,435
858,15	39,752
858,32	35,219
858,49	36,683
858,65	43,664
858,82	32,751
858,99	28,054
859,16	48,184
859,32	42,152
859,49	21,699
859,66	30,648
859,83	44,623
859,99	33,067
860,16	41,924
860,33	33,750
860,49	28,147
860,66	52,054
860,83	34,009
861,00	35,442
861,16	44,627
861,33	40,186
861,50	27,043
861,66	34,809
861,83	55,276
862,00	59,667
862,16	37,464
862,33	20,867
862,50	61,193
862,67	35,742
862,83	20,944
863,00	44,066
863,17	53,095
863,33	43,983
863,50	25,664
863,67	35,743
863,83	29,028
864,00	56,691
864,17	27,610
864,33	35,889
864,50	44,494
864,67	29,736
864,83	31,006
865,00	32,005
865,17	50,064
865,33	53,201
865,50	32,473
865,67	28,590
865,83	35,967
866,00	61,018
866,17	43,317
866,33	31,890
866,50	57,197
866,66	41,797
866,83	18,703
867,00	42,149
867,16	58,382
867,33	78,065
867,50	29,999
867,66	6,170
867,83	55,152
868,00	35,607
868,16	34,634
868,33	39,379
868,49	46,177
868,66	59,929
868,83	37,100
868,99	51,807
869,16	66,300
869,32	58,116
869,49	36,730
869,66	19,086
869,82	74,150
869,99	64,699
870,15	26,296
870,32	55,281
870,49	67,441
870,65	81,150
870,82	38,904
870,98	47,165
871,15	87,007
871,32	39,698
871,48	17,020
871,65	18,778
871,81	56,471
871,98	-1,175
872,15	18,666
872,31	36,353
872,48	64,658
872,64	75,707
872,81	10,343
872,97	43,461
873,14	75,121
873,31	69,773
873,47	31,750
873,64	18,879
873,80	95,235
873,97	89,988
874,13	21,738
874,30	41,019
874,46	60,077
874,63	36,165
874,80	32,430
874,96	10,599
875,13	72,912
875,29	15,994
875,46	67,727
875,62	47,119
875,79	68,455
875,95	53,906
876,12	32,865
876,28	1,974
876,45	73,941
876,61	52,818
876,78	44,109
876,94	27,031
877,11	62,986
877,27	64,827
877,44	43,914
877,60	57,799
877,77	50,513
877,94	97,374
878,10	38,086
878,27	57,417
878,43	121,496
878,60	74,757
878,76	39,413
878,93	30,991
879,09	110,559
879,26	91,653
879,42	48,180
879,58	23,289
879,75	84,584
879,91	105,590
880,08	-37,797
880,24	35,749
880,41	68,282
880,57	47,177
880,74	13,884
880,90	59,158
881,07	58,002
881,23	119,502
881,40	21,524
881,56	51,435
881,73	92,555
881,89	48,751
882,06	11,355
882,22	166,138
882,38	130,408
882,55	95,994
882,71	19,335
882,88	42,915
883,04	142,949
883,21	139,504
883,37	48,554
883,54	56,011
883,70	130,067
883,86	81,310
884,03	14,151
884,19	13,750
884,36	-11,980
884,52	158,366
884,69	121,664
884,85	59,780
885,01	122,039
885,18	106,463
885,34	83,045
885,51	13,792
885,67	56,675
>>>>> Data<<<<< Espectral Procesado Extremo
