Fichero De Datos De SpectraSuite
++++++++++++++++++++++++++++++++++++
Fecha: Wed Apr 22 11:27:20 CEST 2009
Usuario: evoflor
Presente Oscuro Del Espectro: Sí
La Referencia de Presente Del Espectro De: Sí
Muestreados de los componentes de Número de espectros: 1
Espectrómetros: USB4F02353
Tiempo de integración (usec): 500000 (USB4F02353)
Promedio de Espectros Hechos un: 5 (USB4F02353)
El Alisar Del Furgón: 0 (USB4F02353)
Párrafo de de Corregir del la del del de Eléctrica del obscuridad: Sí (USB4F02353)
Estrobo/Lámpara Permitido: No (USB4F02353)
Correct for Detector Non-linearity: No (USB4F02353)
Párrafo de de Corregir del la del del de Externa del luz: No (USB4F02353)
Procesado del espectro de Número de pixeles en: 3648
>>>>> Comienza Data<<<<< Espectral Procesado Del EL
177,79	257,645
178,00	257,645
178,22	257,645
178,44	687,912
178,66	-163,660
178,88	148,208
179,09	-239,149
179,31	329,391
179,53	472,136
179,75	250,602
179,96	1066,379
180,18	-184,000
180,40	405,414
180,62	397,347
180,83	-266,116
181,05	-1354,878
181,27	-27400,000
181,49	132,174
181,70	455,000
181,92	568,528
182,14	738,554
182,36	88,719
182,58	239,000
182,79	861,607
183,01	-60,757
183,23	68,694
183,45	-372,308
183,66	113,717
183,88	791,176
184,10	-3083,636
184,32	7,673
184,53	215,173
184,75	-234,168
184,97	48,401
185,18	7,707
185,40	-547,115
185,62	54,592
185,84	-44,323
186,05	96,502
186,27	-72,626
186,49	2715,385
186,71	79,332
186,92	206,167
187,14	-252,161
187,36	133,804
187,58	83,209
187,79	30,851
188,01	187,017
188,23	-141,761
188,45	181,672
188,66	363,393
188,88	-3198,182
189,10	-2029,000
189,31	-66,724
189,53	-32,117
189,75	287,273
189,97	53,462
190,18	-114,163
190,40	844,118
190,62	-66,751
190,83	-118,093
191,05	251,033
191,27	158,000
191,49	404,208
191,70	-187,981
191,92	-338,983
192,14	6,039
192,35	585,942
192,57	2222,857
192,79	89,507
193,01	118,418
193,22	133,268
193,44	-83,618
193,66	139,868
193,87	201,285
194,09	2,503
194,31	120,828
194,53	852,448
194,74	112,419
194,96	54,604
195,18	175,740
195,39	-231,398
195,61	-112,661
195,83	-364,783
196,04	76,964
196,26	-96,985
196,48	-8,354
196,70	102,783
196,91	83,962
197,13	167,342
197,35	-2,361
197,56	547,368
197,78	1836,567
198,00	493,706
198,21	587,379
198,43	-918,023
198,65	137,041
198,86	260,432
199,08	399,672
199,30	288,664
199,51	-165,472
199,73	257,347
199,95	230,446
200,16	482,692
200,38	118,346
200,60	143,081
200,81	278,373
201,03	167,391
201,25	-1714,000
201,46	70,634
201,68	32,611
201,90	909,091
202,11	1,908
202,33	257,630
202,55	477,500
202,76	-82,838
202,98	220,906
203,20	54,327
203,41	-352,632
203,63	116,091
203,85	-135400,000
204,06	-63,805
204,28	-285,060
204,50	186,537
204,71	363,251
204,93	-544,000
205,15	296,687
205,36	-269,216
205,58	166,603
205,80	-77,996
206,01	57,640
206,23	50,000
206,45	206,616
206,66	173,806
206,88	-27,899
207,10	197,273
207,31	272,318
207,53	325,143
207,75	42,464
207,96	1178,358
208,18	-214,164
208,39	63,417
208,61	3328,571
208,83	-241,436
209,04	135,760
209,26	-292,166
209,48	240,557
209,69	263,387
209,91	740,203
210,13	94,366
210,34	173,123
210,56	196,664
210,77	-1909,449
210,99	127,309
211,21	9870,588
211,42	-154,307
211,64	31,262
211,86	124,386
212,07	333,526
212,29	236,121
212,50	151,781
212,72	403,077
212,94	169,790
213,15	114,286
213,37	144,131
213,58	-66,741
213,80	-1910,714
214,02	10294,118
214,23	99,270
214,45	641,639
214,67	587,805
214,88	-261,074
215,10	-175,000
215,31	-36,463
215,53	125,682
215,75	182,261
215,96	1757,764
216,18	-754,930
216,39	168,289
216,61	262,227
216,83	560,268
217,04	1126,966
217,26	7,903
217,47	183,920
217,69	315,795
217,91	101,031
218,12	-159700,000
218,34	123,280
218,55	335,279
218,77	20,998
218,99	214,128
219,20	-152,139
219,42	342,226
219,63	-12,367
219,85	-157,836
220,06	185,000
220,28	212,441
220,50	53,982
220,71	62,423
220,93	3471,698
221,14	-2299,000
221,36	69,790
221,58	123,636
221,79	136,077
222,01	1043,103
222,22	511,842
222,44	-278,652
222,65	85,961
222,87	292,308
223,09	108,425
223,30	57,428
223,52	83,805
223,73	98,236
223,95	-8,310
224,16	210,515
224,38	290,995
224,60	110,187
224,81	84,455
225,03	145,154
225,24	179,795
225,46	144,186
225,67	13,608
225,89	57,068
226,10	529,819
226,32	1133,600
226,54	-12,919
226,75	0,459
226,97	130,949
227,18	157,959
227,40	170,092
227,61	21,806
227,83	1,414
228,04	148,963
228,26	46,124
228,47	55,932
228,69	177,872
228,91	142,502
229,12	65,495
229,34	42,528
229,55	57,949
229,77	34,154
229,98	-9,498
230,20	48,562
230,41	49,107
230,63	78,701
230,84	4,698
231,06	39,955
231,27	34,736
231,49	39,107
231,71	21,919
231,92	27,771
232,14	35,693
232,35	82,382
232,57	68,000
232,78	29,098
233,00	35,915
233,21	51,972
233,43	31,813
233,64	23,559
233,86	50,132
234,07	35,090
234,29	19,352
234,50	9,218
234,72	32,263
234,93	28,845
235,15	38,675
235,36	35,676
235,58	47,260
235,79	48,431
236,01	30,961
236,22	3,746
236,44	48,050
236,65	20,732
236,87	33,405
237,08	16,352
237,30	2,380
237,51	18,357
237,73	15,910
237,94	11,944
238,16	25,284
238,37	32,047
238,59	14,309
238,80	20,468
239,02	8,035
239,23	18,791
239,45	5,305
239,66	19,575
239,88	34,007
240,09	36,495
240,31	4,957
240,52	5,311
240,74	28,592
240,95	24,108
241,17	17,627
241,38	13,641
241,60	17,881
241,81	23,596
242,03	8,939
242,24	14,610
242,46	23,158
242,67	8,120
242,89	12,975
243,10	18,902
243,32	21,871
243,53	15,744
243,75	10,981
243,96	11,995
244,18	23,397
244,39	11,919
244,60	10,676
244,82	8,228
245,03	21,605
245,25	14,597
245,46	20,292
245,68	2,691
245,89	18,664
246,11	18,567
246,32	15,604
246,54	11,996
246,75	16,128
246,97	10,378
247,18	24,650
247,39	13,674
247,61	12,950
247,82	19,567
248,04	8,886
248,25	14,175
248,47	18,863
248,68	19,052
248,90	6,682
249,11	18,082
249,33	26,329
249,54	15,874
249,75	10,544
249,97	9,743
250,18	19,771
250,40	18,820
250,61	2,481
250,83	10,215
251,04	6,770
251,25	17,419
251,47	7,719
251,68	13,896
251,90	14,120
252,11	15,224
252,33	13,413
252,54	14,013
252,76	13,708
252,97	8,022
253,18	7,262
253,40	8,217
253,61	6,150
253,83	15,659
254,04	12,848
254,25	12,006
254,47	7,173
254,68	10,832
254,90	12,892
255,11	9,592
255,33	17,144
255,54	6,732
255,75	10,311
255,97	8,612
256,18	7,902
256,40	15,070
256,61	8,989
256,82	4,512
257,04	20,484
257,25	9,791
257,47	10,513
257,68	8,976
257,89	13,828
258,11	12,006
258,32	13,941
258,54	11,959
258,75	16,068
258,96	16,192
259,18	11,281
259,39	8,568
259,61	11,000
259,82	9,777
260,03	13,415
260,25	9,245
260,46	8,305
260,68	10,027
260,89	7,898
261,10	12,853
261,32	11,026
261,53	10,244
261,75	12,683
261,96	1,100
262,17	15,474
262,39	15,793
262,60	11,288
262,81	6,871
263,03	15,869
263,24	9,007
263,46	2,847
263,67	6,597
263,88	9,009
264,10	12,039
264,31	4,954
264,52	10,540
264,74	14,374
264,95	5,973
265,17	8,631
265,38	9,839
265,59	13,975
265,81	13,030
266,02	4,638
266,23	5,656
266,45	14,199
266,66	16,017
266,87	10,771
267,09	7,178
267,30	11,650
267,52	12,807
267,73	10,679
267,94	11,913
268,16	13,338
268,37	13,680
268,58	10,592
268,80	11,412
269,01	9,275
269,22	11,136
269,44	12,271
269,65	11,167
269,86	8,306
270,08	10,372
270,29	4,370
270,50	10,027
270,72	11,116
270,93	8,637
271,14	7,467
271,36	10,435
271,57	8,237
271,78	11,409
272,00	9,165
272,21	13,248
272,42	9,385
272,64	13,326
272,85	9,437
273,06	7,994
273,28	11,774
273,49	11,965
273,70	11,116
273,92	11,299
274,13	12,725
274,34	8,938
274,56	14,049
274,77	9,130
274,98	12,319
275,20	12,173
275,41	12,258
275,62	11,382
275,84	11,560
276,05	19,390
276,26	8,302
276,47	5,780
276,69	11,144
276,90	11,207
277,11	9,442
277,33	6,675
277,54	7,987
277,75	11,455
277,97	7,769
278,18	14,277
278,39	13,930
278,61	8,640
278,82	12,392
279,03	11,734
279,24	8,261
279,46	9,789
279,67	11,170
279,88	8,091
280,10	14,948
280,31	6,491
280,52	9,970
280,73	5,387
280,95	10,538
281,16	13,674
281,37	7,677
281,59	14,656
281,80	18,576
282,01	10,732
282,22	8,581
282,44	10,489
282,65	16,317
282,86	9,937
283,08	9,080
283,29	10,309
283,50	10,681
283,71	11,903
283,93	11,239
284,14	13,209
284,35	8,618
284,56	10,279
284,78	7,445
284,99	10,032
285,20	12,976
285,42	8,978
285,63	10,226
285,84	7,491
286,05	10,145
286,27	8,368
286,48	9,086
286,69	6,152
286,90	10,124
287,12	10,592
287,33	8,247
287,54	8,168
287,75	9,163
287,97	10,454
288,18	9,896
288,39	7,046
288,60	10,520
288,82	9,429
289,03	9,421
289,24	9,512
289,45	10,693
289,67	11,605
289,88	10,635
290,09	12,825
290,30	11,713
290,52	7,786
290,73	7,119
290,94	3,667
291,15	9,250
291,37	11,099
291,58	9,855
291,79	9,913
292,00	10,910
292,21	11,091
292,43	9,091
292,64	8,973
292,85	8,368
293,06	12,866
293,28	9,292
293,49	6,003
293,70	11,996
293,91	5,543
294,12	10,988
294,34	10,304
294,55	9,115
294,76	8,646
294,97	10,083
295,19	5,729
295,40	7,959
295,61	11,078
295,82	5,914
296,03	8,634
296,25	9,966
296,46	6,837
296,67	4,194
296,88	3,656
297,09	12,075
297,31	9,613
297,52	9,024
297,73	8,995
297,94	13,161
298,15	13,456
298,37	8,235
298,58	9,551
298,79	9,903
299,00	6,969
299,21	9,772
299,43	8,594
299,64	14,252
299,85	11,473
300,06	7,864
300,27	6,370
300,49	11,795
300,70	10,832
300,91	7,119
301,12	8,164
301,33	11,220
301,54	9,641
301,76	10,360
301,97	7,484
302,18	8,121
302,39	11,338
302,60	10,662
302,82	10,743
303,03	12,586
303,24	9,133
303,45	7,920
303,66	9,515
303,87	8,956
304,09	11,802
304,30	6,451
304,51	6,734
304,72	9,966
304,93	9,838
305,14	9,377
305,36	6,183
305,57	6,927
305,78	10,732
305,99	9,623
306,20	9,596
306,41	6,552
306,62	7,748
306,84	7,716
307,05	5,297
307,26	9,741
307,47	10,495
307,68	6,668
307,89	6,971
308,11	12,493
308,32	8,342
308,53	8,929
308,74	5,427
308,95	7,685
309,16	11,594
309,37	11,301
309,59	6,559
309,80	11,367
310,01	9,731
310,22	12,394
310,43	7,998
310,64	12,854
310,85	9,597
311,06	8,765
311,28	9,675
311,49	9,597
311,70	12,342
311,91	8,378
312,12	7,308
312,33	10,742
312,54	9,030
312,75	9,111
312,97	6,838
313,18	11,195
313,39	6,754
313,60	7,231
313,81	6,628
314,02	9,043
314,23	10,305
314,44	5,674
314,65	10,357
314,87	6,506
315,08	9,297
315,29	10,468
315,50	8,738
315,71	10,877
315,92	13,956
316,13	9,048
316,34	7,906
316,55	11,717
316,77	6,142
316,98	8,436
317,19	9,098
317,40	10,780
317,61	10,874
317,82	8,278
318,03	7,735
318,24	8,253
318,45	13,809
318,66	8,225
318,87	6,217
319,09	12,158
319,30	10,381
319,51	9,817
319,72	11,403
319,93	11,957
320,14	10,117
320,35	10,599
320,56	6,689
320,77	3,148
320,98	12,782
321,19	8,118
321,40	10,051
321,62	11,650
321,83	8,264
322,04	9,884
322,25	8,442
322,46	12,174
322,67	13,475
322,88	12,593
323,09	8,465
323,30	11,138
323,51	12,077
323,72	13,473
323,93	7,153
324,14	8,649
324,35	5,427
324,56	4,283
324,77	7,033
324,99	8,118
325,20	5,249
325,41	8,293
325,62	7,657
325,83	6,186
326,04	9,048
326,25	11,162
326,46	6,590
326,67	9,575
326,88	10,680
327,09	8,370
327,30	7,979
327,51	11,361
327,72	9,810
327,93	11,111
328,14	8,013
328,35	6,386
328,56	10,667
328,77	9,056
328,98	9,718
329,19	9,186
329,40	11,399
329,61	7,826
329,82	7,059
330,04	8,631
330,25	8,948
330,46	9,964
330,67	5,911
330,88	10,187
331,09	10,470
331,30	7,306
331,51	10,256
331,72	11,202
331,93	13,732
332,14	7,237
332,35	9,905
332,56	9,967
332,77	13,054
332,98	4,661
333,19	7,397
333,40	11,170
333,61	10,457
333,82	9,648
334,03	10,661
334,24	12,159
334,45	9,449
334,66	10,364
334,87	11,253
335,08	5,364
335,29	8,546
335,50	5,768
335,71	5,492
335,92	9,695
336,13	12,345
336,34	5,864
336,55	10,086
336,76	11,952
336,97	9,179
337,18	8,027
337,39	11,219
337,60	7,723
337,81	10,266
338,02	11,020
338,23	10,137
338,44	8,153
338,65	7,992
338,86	8,643
339,07	7,518
339,28	13,055
339,49	10,524
339,70	8,015
339,91	8,506
340,11	12,046
340,32	7,095
340,53	6,604
340,74	8,060
340,95	8,100
341,16	10,848
341,37	8,380
341,58	5,797
341,79	9,158
342,00	9,404
342,21	7,906
342,42	7,495
342,63	9,222
342,84	7,344
343,05	9,259
343,26	11,405
343,47	9,414
343,68	6,527
343,89	7,989
344,10	10,095
344,31	13,008
344,52	9,233
344,73	6,138
344,94	9,749
345,14	8,780
345,35	12,538
345,56	10,620
345,77	10,759
345,98	9,395
346,19	8,244
346,40	11,213
346,61	9,876
346,82	9,221
347,03	9,388
347,24	9,603
347,45	6,845
347,66	14,540
347,87	9,688
348,08	12,382
348,28	6,058
348,49	8,890
348,70	9,493
348,91	7,195
349,12	5,461
349,33	22,511
349,54	10,590
349,75	10,233
349,96	9,789
350,17	11,048
350,38	8,929
350,59	11,166
350,80	7,655
351,00	9,835
351,21	11,440
351,42	6,689
351,63	8,069
351,84	11,549
352,05	12,638
352,26	8,923
352,47	9,006
352,68	12,089
352,89	10,371
353,09	11,716
353,30	8,380
353,51	8,761
353,72	13,283
353,93	12,287
354,14	2,387
354,35	9,148
354,56	9,847
354,77	9,143
354,98	4,649
355,18	10,122
355,39	16,307
355,60	7,346
355,81	9,958
356,02	7,866
356,23	9,312
356,44	10,568
356,65	11,527
356,85	16,271
357,06	12,194
357,27	10,116
357,48	8,259
357,69	10,682
357,90	9,176
358,11	7,326
358,32	7,710
358,52	12,018
358,73	9,762
358,94	9,768
359,15	11,325
359,36	12,587
359,57	9,025
359,78	10,330
359,98	5,808
360,19	6,520
360,40	10,942
360,61	10,073
360,82	10,938
361,03	11,157
361,24	10,188
361,44	7,999
361,65	11,216
361,86	7,229
362,07	9,697
362,28	8,052
362,49	8,015
362,70	10,559
362,90	11,480
363,11	6,777
363,32	5,561
363,53	11,450
363,74	13,581
363,95	10,765
364,15	10,267
364,36	13,251
364,57	7,198
364,78	8,097
364,99	7,426
365,20	9,465
365,40	11,072
365,61	6,925
365,82	11,438
366,03	8,580
366,24	10,337
366,45	9,181
366,65	8,690
366,86	12,716
367,07	12,566
367,28	6,393
367,49	9,693
367,69	12,227
367,90	9,027
368,11	8,807
368,32	6,717
368,53	10,457
368,73	11,857
368,94	9,045
369,15	9,709
369,36	12,619
369,57	12,423
369,78	7,257
369,98	12,793
370,19	16,597
370,40	11,598
370,61	8,902
370,82	9,771
371,02	12,600
371,23	12,756
371,44	9,516
371,65	9,537
371,85	15,117
372,06	10,952
372,27	11,806
372,48	9,694
372,69	11,681
372,89	6,075
373,10	10,173
373,31	8,979
373,52	11,215
373,73	15,437
373,93	9,757
374,14	11,320
374,35	11,797
374,56	11,788
374,76	9,290
374,97	7,995
375,18	10,197
375,39	10,039
375,60	13,969
375,80	8,658
376,01	12,029
376,22	13,942
376,43	9,516
376,63	12,696
376,84	11,737
377,05	12,495
377,26	7,274
377,46	9,873
377,67	13,004
377,88	12,473
378,09	10,443
378,29	5,283
378,50	11,965
378,71	9,234
378,92	7,618
379,12	10,509
379,33	9,717
379,54	12,063
379,75	13,785
379,95	12,938
380,16	13,823
380,37	15,281
380,58	12,378
380,78	13,250
380,99	13,312
381,20	9,615
381,41	10,730
381,61	12,892
381,82	11,953
382,03	14,301
382,24	10,172
382,44	10,626
382,65	10,458
382,86	12,843
383,06	11,815
383,27	13,504
383,48	10,637
383,69	12,230
383,89	12,124
384,10	10,450
384,31	13,732
384,51	13,322
384,72	11,204
384,93	10,801
385,14	13,396
385,34	11,789
385,55	12,519
385,76	10,700
385,96	15,308
386,17	13,183
386,38	16,109
386,59	17,045
386,79	12,314
387,00	16,372
387,21	16,070
387,41	14,869
387,62	13,347
387,83	16,291
388,03	12,727
388,24	9,276
388,45	14,843
388,66	15,517
388,86	13,338
389,07	9,525
389,28	18,232
389,48	14,277
389,69	15,473
389,90	9,979
390,10	15,260
390,31	19,323
390,52	7,582
390,72	12,935
390,93	14,666
391,14	14,129
391,34	17,087
391,55	13,928
391,76	16,926
391,96	15,623
392,17	13,825
392,38	16,283
392,58	16,445
392,79	17,755
393,00	11,998
393,20	13,327
393,41	16,792
393,62	15,770
393,82	15,880
394,03	13,099
394,24	15,510
394,44	20,237
394,65	16,781
394,86	17,772
395,06	19,794
395,27	16,009
395,48	14,484
395,68	17,785
395,89	19,179
396,10	19,905
396,30	16,987
396,51	15,517
396,72	16,830
396,92	14,928
397,13	20,502
397,34	15,338
397,54	19,054
397,75	15,464
397,95	15,954
398,16	17,527
398,37	19,820
398,57	18,843
398,78	19,539
398,99	20,371
399,19	19,615
399,40	17,987
399,60	18,688
399,81	17,271
400,02	16,255
400,22	21,525
400,43	20,799
400,64	17,559
400,84	18,353
401,05	19,947
401,25	19,790
401,46	18,361
401,67	18,620
401,87	19,929
402,08	16,213
402,29	20,895
402,49	26,181
402,70	20,444
402,90	17,181
403,11	17,661
403,32	22,394
403,52	21,642
403,73	21,934
403,93	22,896
404,14	24,312
404,35	21,244
404,55	19,538
404,76	18,042
404,96	23,650
405,17	23,508
405,38	23,622
405,58	20,757
405,79	19,683
405,99	27,261
406,20	20,269
406,40	17,982
406,61	24,325
406,82	22,094
407,02	22,121
407,23	20,192
407,43	23,426
407,64	20,241
407,85	19,736
408,05	16,314
408,26	30,672
408,46	27,064
408,67	21,196
408,87	21,506
409,08	23,722
409,29	27,395
409,49	24,571
409,70	22,452
409,90	24,120
410,11	28,101
410,31	24,838
410,52	24,572
410,72	22,259
410,93	26,775
411,14	24,580
411,34	22,606
411,55	29,414
411,75	26,871
411,96	25,177
412,16	25,870
412,37	26,665
412,57	28,144
412,78	26,627
412,99	24,956
413,19	31,655
413,40	26,276
413,60	19,645
413,81	21,719
414,01	26,390
414,22	24,424
414,42	22,042
414,63	21,082
414,83	26,913
415,04	24,431
415,24	29,186
415,45	29,068
415,65	24,889
415,86	26,589
416,07	27,771
416,27	27,102
416,48	29,711
416,68	28,793
416,89	24,797
417,09	29,272
417,30	28,600
417,50	28,254
417,71	25,747
417,91	25,805
418,12	27,676
418,32	27,254
418,53	27,694
418,73	28,239
418,94	27,629
419,14	28,607
419,35	24,310
419,55	28,251
419,76	31,318
419,96	28,506
420,17	26,103
420,37	26,071
420,58	28,995
420,78	26,681
420,99	29,193
421,19	30,644
421,40	26,667
421,60	31,492
421,81	27,038
422,01	27,567
422,22	26,146
422,42	32,114
422,63	25,272
422,83	24,738
423,04	31,568
423,24	33,401
423,45	25,524
423,65	33,373
423,86	33,649
424,06	28,493
424,27	28,541
424,47	27,236
424,67	28,681
424,88	30,608
425,08	29,385
425,29	34,553
425,49	24,915
425,70	27,730
425,90	29,825
426,11	27,142
426,31	26,900
426,52	31,896
426,72	26,995
426,93	29,436
427,13	31,736
427,33	27,880
427,54	30,482
427,74	31,520
427,95	32,935
428,15	29,060
428,36	28,924
428,56	28,742
428,77	29,506
428,97	30,905
429,18	31,080
429,38	27,435
429,58	31,933
429,79	32,906
429,99	27,773
430,20	23,013
430,40	33,681
430,61	30,105
430,81	28,073
431,01	29,030
431,22	32,261
431,42	34,511
431,63	31,113
431,83	27,609
432,04	31,713
432,24	35,656
432,44	28,649
432,65	25,407
432,85	31,351
433,06	27,315
433,26	31,140
433,47	26,332
433,67	28,637
433,87	27,938
434,08	26,169
434,28	27,343
434,49	25,793
434,69	31,473
434,89	26,529
435,10	25,917
435,30	34,084
435,51	24,108
435,71	30,733
435,91	24,318
436,12	27,702
436,32	28,536
436,53	30,062
436,73	28,548
436,93	30,397
437,14	28,974
437,34	30,215
437,55	31,275
437,75	29,133
437,95	31,497
438,16	30,288
438,36	26,918
438,57	29,901
438,77	27,600
438,97	31,535
439,18	33,279
439,38	28,178
439,58	29,995
439,79	32,096
439,99	26,489
440,20	36,232
440,40	32,138
440,60	30,060
440,81	33,131
441,01	28,222
441,21	30,984
441,42	30,425
441,62	34,252
441,83	33,279
442,03	29,777
442,23	32,534
442,44	27,991
442,64	32,286
442,84	26,358
443,05	30,293
443,25	31,076
443,45	29,301
443,66	31,557
443,86	29,499
444,06	32,778
444,27	30,478
444,47	29,316
444,67	28,449
444,88	32,212
445,08	33,724
445,28	28,698
445,49	30,410
445,69	27,730
445,90	31,460
446,10	36,421
446,30	30,404
446,51	32,710
446,71	35,855
446,91	35,657
447,12	34,321
447,32	32,966
447,52	34,004
447,72	32,560
447,93	31,602
448,13	31,629
448,33	39,682
448,54	35,506
448,74	27,926
448,94	32,491
449,15	40,314
449,35	32,431
449,55	32,953
449,76	35,735
449,96	33,985
450,16	33,224
450,37	31,108
450,57	32,856
450,77	32,041
450,98	34,953
451,18	36,296
451,38	33,656
451,58	33,226
451,79	35,301
451,99	34,816
452,19	33,809
452,40	31,894
452,60	29,001
452,80	34,216
453,00	33,484
453,21	32,348
453,41	36,328
453,61	33,720
453,82	33,712
454,02	28,908
454,22	35,607
454,42	31,001
454,63	31,271
454,83	31,559
455,03	35,783
455,24	35,686
455,44	32,858
455,64	34,131
455,84	31,734
456,05	28,514
456,25	28,183
456,45	36,458
456,65	33,942
456,86	34,693
457,06	34,005
457,26	39,881
457,47	36,494
457,67	30,318
457,87	34,041
458,07	33,197
458,28	32,619
458,48	37,299
458,68	29,253
458,88	36,391
459,09	35,911
459,29	36,198
459,49	29,508
459,69	36,536
459,90	36,868
460,10	34,560
460,30	34,766
460,50	34,473
460,71	36,181
460,91	35,564
461,11	32,604
461,31	34,451
461,52	36,717
461,72	34,730
461,92	31,453
462,12	41,842
462,32	28,708
462,53	30,261
462,73	33,621
462,93	36,591
463,13	34,002
463,34	35,517
463,54	30,872
463,74	34,197
463,94	37,147
464,14	37,339
464,35	31,826
464,55	36,763
464,75	40,318
464,95	36,355
465,16	31,041
465,36	37,646
465,56	33,952
465,76	28,993
465,96	34,637
466,17	35,599
466,37	32,791
466,57	35,959
466,77	34,261
466,97	32,752
467,18	35,854
467,38	34,335
467,58	38,824
467,78	37,133
467,98	37,758
468,19	35,028
468,39	38,678
468,59	32,770
468,79	41,412
468,99	32,658
469,19	33,953
469,40	37,994
469,60	26,472
469,80	34,269
470,00	37,093
470,20	37,585
470,41	35,583
470,61	38,477
470,81	36,567
471,01	33,889
471,21	37,926
471,41	34,171
471,62	34,248
471,82	35,252
472,02	34,773
472,22	35,033
472,42	33,487
472,62	39,299
472,83	33,614
473,03	39,619
473,23	34,707
473,43	39,003
473,63	34,122
473,83	37,243
474,03	31,973
474,24	39,768
474,44	35,866
474,64	34,998
474,84	33,972
475,04	37,349
475,24	36,775
475,45	37,020
475,65	36,804
475,85	36,314
476,05	33,494
476,25	36,097
476,45	35,128
476,65	38,849
476,85	32,989
477,06	36,240
477,26	35,298
477,46	34,345
477,66	34,806
477,86	36,173
478,06	32,448
478,26	40,116
478,46	32,574
478,67	36,924
478,87	33,169
479,07	37,956
479,27	34,748
479,47	35,017
479,67	28,791
479,87	32,966
480,07	37,387
480,28	36,314
480,48	35,761
480,68	36,845
480,88	40,610
481,08	35,539
481,28	35,288
481,48	39,842
481,68	35,495
481,88	33,415
482,08	32,498
482,29	36,499
482,49	32,714
482,69	33,782
482,89	33,882
483,09	38,414
483,29	35,131
483,49	31,007
483,69	32,432
483,89	33,183
484,09	34,497
484,29	31,793
484,50	33,888
484,70	34,352
484,90	33,776
485,10	34,960
485,30	35,235
485,50	36,469
485,70	34,203
485,90	34,133
486,10	29,374
486,30	32,586
486,50	34,839
486,70	35,098
486,90	33,683
487,10	35,907
487,30	33,195
487,51	36,392
487,71	31,583
487,91	33,193
488,11	34,992
488,31	30,503
488,51	33,774
488,71	31,335
488,91	35,827
489,11	31,060
489,31	32,900
489,51	34,105
489,71	32,805
489,91	33,329
490,11	33,577
490,31	31,136
490,51	35,198
490,71	34,493
490,91	32,660
491,11	33,611
491,31	36,177
491,51	31,362
491,72	32,114
491,92	34,695
492,12	35,522
492,32	34,727
492,52	36,726
492,72	34,274
492,92	34,640
493,12	37,997
493,32	33,990
493,52	32,379
493,72	32,683
493,92	34,501
494,12	34,115
494,32	34,283
494,52	32,542
494,72	34,115
494,92	32,480
495,12	33,629
495,32	36,775
495,52	33,848
495,72	35,131
495,92	37,333
496,12	34,917
496,32	33,035
496,52	32,567
496,72	31,749
496,92	33,861
497,12	35,131
497,32	34,037
497,52	36,630
497,72	36,383
497,92	36,884
498,12	34,440
498,32	32,868
498,52	35,833
498,72	34,329
498,92	31,932
499,12	36,640
499,32	32,020
499,52	33,329
499,72	37,155
499,92	34,983
500,12	35,777
500,32	34,597
500,52	31,552
500,72	40,937
500,91	39,291
501,11	34,735
501,31	33,352
501,51	36,956
501,71	40,281
501,91	35,426
502,11	33,933
502,31	36,286
502,51	38,340
502,71	36,348
502,91	32,029
503,11	35,878
503,31	36,095
503,51	31,903
503,71	32,494
503,91	37,895
504,11	34,756
504,31	33,902
504,51	34,458
504,71	40,663
504,91	36,730
505,10	35,307
505,30	36,743
505,50	37,330
505,70	36,555
505,90	34,593
506,10	31,377
506,30	34,448
506,50	36,819
506,70	37,713
506,90	32,793
507,10	37,126
507,30	36,457
507,50	36,543
507,70	35,867
507,89	33,591
508,09	35,323
508,29	34,227
508,49	35,556
508,69	35,647
508,89	31,475
509,09	36,129
509,29	34,318
509,49	35,722
509,69	38,806
509,89	35,430
510,09	33,527
510,28	35,019
510,48	34,598
510,68	34,858
510,88	34,359
511,08	33,815
511,28	35,283
511,48	36,573
511,68	33,305
511,88	30,934
512,07	35,246
512,27	37,722
512,47	33,645
512,67	33,051
512,87	33,113
513,07	35,571
513,27	31,691
513,47	32,799
513,67	31,668
513,86	35,153
514,06	35,804
514,26	32,757
514,46	35,462
514,66	34,503
514,86	34,889
515,06	37,967
515,26	37,344
515,45	34,404
515,65	32,343
515,85	34,140
516,05	32,677
516,25	34,464
516,45	36,915
516,65	33,158
516,84	35,478
517,04	36,552
517,24	33,037
517,44	32,579
517,64	37,700
517,84	33,823
518,04	34,836
518,23	36,393
518,43	35,807
518,63	30,757
518,83	32,903
519,03	33,149
519,23	37,315
519,42	34,221
519,62	31,621
519,82	33,312
520,02	32,589
520,22	35,783
520,42	32,769
520,61	35,231
520,81	34,327
521,01	36,631
521,21	31,062
521,41	34,038
521,61	36,043
521,80	33,156
522,00	35,001
522,20	36,947
522,40	35,356
522,60	32,069
522,79	33,412
522,99	34,713
523,19	32,052
523,39	34,013
523,59	35,584
523,78	37,337
523,98	32,490
524,18	33,182
524,38	31,030
524,58	33,345
524,77	38,562
524,97	34,500
525,17	33,451
525,37	35,407
525,57	37,493
525,76	32,129
525,96	34,654
526,16	29,916
526,36	31,641
526,56	34,203
526,75	31,407
526,95	32,589
527,15	34,719
527,35	30,987
527,55	33,809
527,74	33,320
527,94	32,333
528,14	33,583
528,34	31,425
528,53	33,683
528,73	33,320
528,93	31,968
529,13	31,004
529,32	35,195
529,52	33,969
529,72	30,338
529,92	31,734
530,12	32,844
530,31	30,187
530,51	31,873
530,71	35,164
530,91	33,567
531,10	28,620
531,30	30,608
531,50	29,712
531,70	32,977
531,89	33,846
532,09	30,039
532,29	28,438
532,49	32,075
532,68	32,132
532,88	29,642
533,08	29,711
533,28	33,124
533,47	31,266
533,67	31,746
533,87	30,651
534,06	34,919
534,26	31,302
534,46	28,278
534,66	32,420
534,85	32,132
535,05	26,742
535,25	31,286
535,45	26,270
535,64	32,785
535,84	30,651
536,04	27,286
536,23	31,663
536,43	33,382
536,63	30,616
536,83	30,982
537,02	29,571
537,22	32,320
537,42	31,127
537,61	30,602
537,81	31,406
538,01	30,948
538,20	29,423
538,40	28,466
538,60	30,739
538,80	28,415
538,99	30,209
539,19	28,890
539,39	27,026
539,58	27,835
539,78	24,995
539,98	26,348
540,17	25,918
540,37	27,138
540,57	24,395
540,76	25,925
540,96	22,293
541,16	24,680
541,36	23,066
541,55	20,957
541,75	19,841
541,95	21,427
542,14	22,802
542,34	18,829
542,54	19,421
542,73	22,251
542,93	23,543
543,13	20,728
543,32	22,206
543,52	21,564
543,72	20,141
543,91	21,721
544,11	19,685
544,31	21,235
544,50	19,697
544,70	21,035
544,89	21,169
545,09	23,103
545,29	22,651
545,48	21,837
545,68	21,825
545,88	23,363
546,07	21,105
546,27	23,381
546,47	23,287
546,66	25,066
546,86	26,488
547,06	23,987
547,25	24,509
547,45	26,125
547,64	25,782
547,84	26,370
548,04	28,153
548,23	28,938
548,43	29,648
548,63	29,556
548,82	28,086
549,02	27,073
549,21	25,985
549,41	28,173
549,61	30,387
549,80	27,852
550,00	27,665
550,20	26,639
550,39	29,705
550,59	27,250
550,78	30,887
550,98	25,298
551,18	30,252
551,37	29,366
551,57	28,628
551,76	31,200
551,96	28,850
552,16	28,794
552,35	28,759
552,55	29,583
552,74	29,586
552,94	31,475
553,14	30,353
553,33	30,540
553,53	27,357
553,72	31,874
553,92	32,171
554,12	29,866
554,31	29,948
554,51	30,782
554,70	27,510
554,90	29,592
555,09	30,753
555,29	32,906
555,49	31,546
555,68	33,207
555,88	27,954
556,07	28,957
556,27	31,563
556,46	29,719
556,66	27,283
556,86	32,377
557,05	30,904
557,25	29,521
557,44	29,445
557,64	28,761
557,83	29,712
558,03	32,636
558,22	29,210
558,42	29,329
558,62	32,565
558,81	29,851
559,01	30,131
559,20	31,628
559,40	31,458
559,59	30,805
559,79	29,607
559,98	31,257
560,18	32,388
560,37	31,293
560,57	31,279
560,76	29,061
560,96	27,977
561,16	28,833
561,35	30,554
561,55	35,206
561,74	31,226
561,94	31,986
562,13	29,565
562,33	31,776
562,52	30,893
562,72	30,217
562,91	28,929
563,11	28,918
563,30	31,894
563,50	27,711
563,69	30,685
563,89	29,163
564,08	31,475
564,28	30,896
564,47	30,667
564,67	31,082
564,86	31,689
565,06	31,864
565,25	28,825
565,45	30,711
565,64	36,116
565,84	29,555
566,03	29,643
566,23	29,000
566,42	30,889
566,62	30,051
566,81	30,675
567,01	31,761
567,20	33,650
567,40	30,173
567,59	30,582
567,79	33,213
567,98	32,313
568,18	31,166
568,37	31,152
568,57	30,096
568,76	33,574
568,96	30,824
569,15	29,545
569,35	31,526
569,54	32,949
569,73	31,381
569,93	28,260
570,12	30,742
570,32	32,020
570,51	32,493
570,71	30,200
570,90	32,951
571,10	30,766
571,29	29,808
571,49	29,263
571,68	31,329
571,87	31,816
572,07	30,276
572,26	27,891
572,46	31,286
572,65	30,330
572,85	28,470
573,04	31,095
573,24	29,244
573,43	32,986
573,62	31,442
573,82	30,619
574,01	30,346
574,21	30,596
574,40	29,844
574,60	29,168
574,79	33,632
574,98	30,171
575,18	31,471
575,37	30,278
575,57	31,385
575,76	30,428
575,96	30,640
576,15	30,220
576,34	30,350
576,54	31,636
576,73	31,242
576,93	30,594
577,12	30,593
577,31	31,806
577,51	29,937
577,70	30,058
577,90	31,180
578,09	28,830
578,28	29,023
578,48	30,369
578,67	33,386
578,87	31,206
579,06	30,133
579,25	31,006
579,45	31,985
579,64	29,557
579,84	29,838
580,03	30,721
580,22	31,739
580,42	29,668
580,61	30,399
580,81	30,989
581,00	31,482
581,19	32,250
581,39	29,720
581,58	31,247
581,77	30,808
581,97	32,044
582,16	29,863
582,35	29,740
582,55	30,712
582,74	31,972
582,94	30,344
583,13	28,115
583,32	30,639
583,52	31,389
583,71	31,745
583,90	30,599
584,10	31,486
584,29	31,588
584,48	30,083
584,68	30,655
584,87	30,989
585,06	30,055
585,26	30,202
585,45	29,858
585,65	32,671
585,84	29,706
586,03	29,947
586,23	29,545
586,42	32,090
586,61	32,649
586,81	30,017
587,00	30,427
587,19	29,472
587,39	32,543
587,58	30,919
587,77	30,491
587,97	29,873
588,16	30,472
588,35	30,729
588,54	31,320
588,74	30,858
588,93	32,889
589,12	31,680
589,32	32,752
589,51	32,466
589,70	28,585
589,90	31,738
590,09	30,355
590,28	33,956
590,48	31,061
590,67	33,335
590,86	31,557
591,06	30,565
591,25	33,340
591,44	31,967
591,63	31,775
591,83	33,390
592,02	32,110
592,21	31,748
592,41	30,551
592,60	33,795
592,79	33,096
592,98	34,005
593,18	30,507
593,37	33,440
593,56	32,838
593,76	31,745
593,95	32,143
594,14	32,000
594,33	34,708
594,53	32,283
594,72	32,343
594,91	35,816
595,10	33,272
595,30	30,853
595,49	32,542
595,68	34,892
595,88	34,000
596,07	33,240
596,26	32,960
596,45	34,124
596,65	32,254
596,84	32,188
597,03	33,214
597,22	33,666
597,42	35,760
597,61	31,862
597,80	34,798
597,99	33,199
598,19	33,173
598,38	34,541
598,57	32,938
598,76	34,189
598,95	35,693
599,15	34,421
599,34	33,219
599,53	34,350
599,72	34,098
599,92	34,218
600,11	34,009
600,30	34,035
600,49	36,402
600,69	34,002
600,88	35,129
601,07	33,735
601,26	33,972
601,45	34,524
601,65	35,943
601,84	35,505
602,03	34,000
602,22	35,318
602,42	37,024
602,61	33,196
602,80	36,392
602,99	36,459
603,18	34,452
603,38	36,362
603,57	33,187
603,76	33,648
603,95	33,191
604,14	34,862
604,34	34,588
604,53	33,122
604,72	34,577
604,91	35,220
605,10	34,336
605,29	34,945
605,49	33,464
605,68	35,461
605,87	36,400
606,06	34,319
606,25	32,977
606,45	33,666
606,64	34,239
606,83	35,362
607,02	33,331
607,21	35,462
607,40	34,558
607,60	31,862
607,79	31,807
607,98	31,682
608,17	33,064
608,36	33,314
608,55	31,678
608,75	33,383
608,94	31,869
609,13	28,812
609,32	28,482
609,51	31,069
609,70	28,135
609,89	31,313
610,09	29,162
610,28	30,710
610,47	28,133
610,66	27,858
610,85	27,637
611,04	30,314
611,23	29,523
611,43	28,993
611,62	27,571
611,81	29,183
612,00	29,930
612,19	28,828
612,38	29,685
612,57	29,966
612,77	29,630
612,96	31,978
613,15	30,270
613,34	32,391
613,53	32,157
613,72	32,903
613,91	32,139
614,10	31,558
614,29	34,502
614,49	32,935
614,68	31,630
614,87	33,293
615,06	37,164
615,25	31,958
615,44	34,480
615,63	33,885
615,82	34,730
616,01	35,140
616,21	32,810
616,40	34,273
616,59	36,513
616,78	33,441
616,97	35,109
617,16	35,867
617,35	36,194
617,54	35,606
617,73	35,830
617,92	36,172
618,11	39,251
618,31	35,019
618,50	36,210
618,69	35,802
618,88	34,217
619,07	33,692
619,26	33,429
619,45	36,354
619,64	33,113
619,83	33,892
620,02	33,975
620,21	35,762
620,40	35,951
620,59	34,056
620,78	33,580
620,97	37,544
621,17	37,030
621,36	34,243
621,55	34,853
621,74	36,682
621,93	35,538
622,12	35,983
622,31	34,335
622,50	34,465
622,69	37,385
622,88	36,051
623,07	37,401
623,26	37,333
623,45	39,145
623,64	35,698
623,83	36,464
624,02	36,992
624,21	38,017
624,40	37,706
624,59	35,852
624,78	37,308
624,97	37,494
625,16	33,340
625,35	34,234
625,54	34,828
625,73	36,873
625,92	35,753
626,12	37,566
626,31	38,342
626,50	38,551
626,69	36,607
626,88	34,955
627,07	36,801
627,26	36,545
627,45	35,790
627,64	37,510
627,83	36,133
628,02	35,611
628,21	35,779
628,40	34,088
628,59	37,119
628,78	35,118
628,97	33,767
629,16	35,695
629,35	34,858
629,54	38,948
629,73	34,933
629,92	34,823
630,10	37,037
630,29	36,502
630,48	36,567
630,67	35,141
630,86	37,132
631,05	36,218
631,24	38,442
631,43	34,695
631,62	36,454
631,81	36,812
632,00	37,061
632,19	36,894
632,38	37,273
632,57	33,613
632,76	37,113
632,95	36,283
633,14	38,746
633,33	38,152
633,52	37,206
633,71	38,730
633,90	35,173
634,09	36,734
634,28	37,509
634,47	37,380
634,66	37,142
634,85	38,687
635,04	39,558
635,22	37,134
635,41	35,839
635,60	40,345
635,79	39,126
635,98	35,370
636,17	37,091
636,36	37,691
636,55	37,963
636,74	34,752
636,93	38,819
637,12	40,453
637,31	37,384
637,50	37,062
637,69	39,292
637,87	37,877
638,06	37,939
638,25	37,392
638,44	37,981
638,63	36,032
638,82	37,934
639,01	38,738
639,20	38,693
639,39	39,539
639,58	37,581
639,77	39,228
639,95	37,883
640,14	38,823
640,33	37,071
640,52	36,140
640,71	40,151
640,90	38,870
641,09	39,656
641,28	37,800
641,47	38,798
641,66	38,211
641,84	38,853
642,03	37,122
642,22	38,423
642,41	40,316
642,60	39,503
642,79	38,099
642,98	37,963
643,17	36,836
643,35	37,208
643,54	37,423
643,73	39,148
643,92	40,229
644,11	38,162
644,30	38,461
644,49	39,339
644,67	37,716
644,86	37,494
645,05	40,360
645,24	37,872
645,43	38,488
645,62	37,914
645,81	38,174
645,99	39,465
646,18	38,693
646,37	38,374
646,56	38,452
646,75	40,390
646,94	40,715
647,13	37,613
647,31	37,169
647,50	37,935
647,69	42,215
647,88	38,433
648,07	39,076
648,26	42,603
648,44	38,137
648,63	36,932
648,82	38,459
649,01	39,484
649,20	36,687
649,38	37,807
649,57	38,259
649,76	37,970
649,95	40,729
650,14	36,700
650,33	38,081
650,51	39,357
650,70	40,805
650,89	38,695
651,08	37,124
651,27	38,357
651,45	37,354
651,64	37,690
651,83	38,913
652,02	37,836
652,21	39,713
652,39	38,727
652,58	40,150
652,77	37,829
652,96	39,551
653,15	39,199
653,33	38,321
653,52	40,365
653,71	40,741
653,90	40,569
654,09	39,321
654,27	39,179
654,46	40,069
654,65	38,939
654,84	41,749
655,02	39,985
655,21	40,953
655,40	40,570
655,59	40,292
655,77	40,571
655,96	38,877
656,15	39,247
656,34	40,048
656,53	39,604
656,71	38,253
656,90	41,237
657,09	39,346
657,28	41,871
657,46	39,392
657,65	38,747
657,84	37,127
658,03	39,242
658,21	40,047
658,40	37,648
658,59	39,191
658,78	39,120
658,96	38,282
659,15	37,375
659,34	38,798
659,52	38,537
659,71	40,244
659,90	37,221
660,09	38,306
660,27	36,070
660,46	40,744
660,65	38,800
660,84	37,601
661,02	38,951
661,21	39,368
661,40	39,440
661,58	39,587
661,77	39,774
661,96	37,842
662,15	37,760
662,33	37,583
662,52	37,568
662,71	39,731
662,89	36,359
663,08	36,875
663,27	38,077
663,45	38,054
663,64	38,275
663,83	36,413
664,02	37,147
664,20	40,628
664,39	38,934
664,58	37,972
664,76	38,892
664,95	39,522
665,14	37,869
665,32	37,651
665,51	39,795
665,70	38,768
665,88	38,440
666,07	38,548
666,26	40,195
666,44	39,478
666,63	37,288
666,82	37,969
667,00	37,699
667,19	36,426
667,38	38,132
667,56	39,736
667,75	38,233
667,94	39,489
668,12	37,902
668,31	39,873
668,50	40,175
668,68	39,756
668,87	37,445
669,06	38,919
669,24	40,083
669,43	37,793
669,62	37,136
669,80	36,377
669,99	37,658
670,18	39,603
670,36	37,333
670,55	37,644
670,74	38,153
670,92	37,412
671,11	39,258
671,29	37,726
671,48	37,519
671,67	38,592
671,85	37,736
672,04	37,048
672,23	36,359
672,41	37,503
672,60	38,878
672,78	36,522
672,97	38,539
673,16	37,205
673,34	37,925
673,53	37,358
673,71	39,125
673,90	38,964
674,09	37,184
674,27	37,666
674,46	37,707
674,64	38,992
674,83	38,205
675,02	35,411
675,20	38,968
675,39	37,143
675,57	37,820
675,76	36,529
675,95	39,524
676,13	40,154
676,32	39,030
676,50	38,392
676,69	36,843
676,88	36,236
677,06	36,614
677,25	38,539
677,43	41,258
677,62	38,133
677,80	37,863
677,99	38,194
678,18	39,311
678,36	39,577
678,55	36,524
678,73	37,371
678,92	37,957
679,10	39,252
679,29	38,137
679,48	37,715
679,66	37,938
679,85	37,179
680,03	38,131
680,22	37,403
680,40	36,890
680,59	37,448
680,77	37,542
680,96	38,312
681,15	37,350
681,33	40,121
681,52	37,558
681,70	37,443
681,89	41,319
682,07	37,616
682,26	35,746
682,44	39,625
682,63	37,823
682,81	38,920
683,00	39,515
683,18	35,878
683,37	39,494
683,55	37,834
683,74	37,564
683,92	41,977
684,11	37,831
684,29	39,321
684,48	37,146
684,67	38,603
684,85	39,117
685,04	39,293
685,22	39,554
685,41	38,382
685,59	38,539
685,78	38,446
685,96	37,291
686,15	37,630
686,33	37,792
686,52	37,706
686,70	38,160
686,89	39,496
687,07	39,215
687,26	41,242
687,44	38,694
687,62	39,751
687,81	38,328
687,99	38,739
688,18	37,968
688,36	39,229
688,55	40,262
688,73	39,289
688,92	38,021
689,10	40,041
689,29	39,919
689,47	41,409
689,66	37,812
689,84	37,851
690,03	42,205
690,21	38,994
690,40	38,716
690,58	38,497
690,76	39,739
690,95	40,467
691,13	38,746
691,32	38,742
691,50	40,101
691,69	39,867
691,87	37,031
692,06	39,004
692,24	38,808
692,43	39,287
692,61	38,617
692,79	38,880
692,98	37,169
693,16	42,108
693,35	38,994
693,53	39,295
693,72	38,970
693,90	41,316
694,08	38,328
694,27	38,859
694,45	40,675
694,64	41,613
694,82	39,053
695,01	38,992
695,19	39,175
695,37	39,444
695,56	38,122
695,74	39,359
695,93	40,699
696,11	39,546
696,29	40,394
696,48	39,509
696,66	42,686
696,85	38,776
697,03	39,063
697,21	39,158
697,40	39,491
697,58	39,855
697,77	38,923
697,95	40,817
698,13	41,235
698,32	40,529
698,50	40,680
698,69	38,983
698,87	40,661
699,05	39,875
699,24	38,103
699,42	39,595
699,60	37,519
699,79	38,870
699,97	38,228
700,16	37,278
700,34	41,137
700,52	39,158
700,71	39,556
700,89	38,809
701,07	39,779
701,26	39,169
701,44	38,849
701,63	36,747
701,81	40,789
701,99	40,112
702,18	36,710
702,36	38,123
702,54	40,477
702,73	38,460
702,91	38,474
703,09	39,101
703,28	38,394
703,46	39,574
703,64	38,925
703,83	38,146
704,01	38,037
704,19	40,598
704,38	39,445
704,56	38,125
704,74	39,767
704,93	40,345
705,11	38,725
705,29	39,133
705,48	42,068
705,66	39,115
705,84	39,489
706,03	38,439
706,21	39,982
706,39	39,549
706,58	38,358
706,76	38,151
706,94	40,074
707,12	40,200
707,31	38,997
707,49	37,869
707,67	39,491
707,86	40,554
708,04	39,221
708,22	38,439
708,41	39,915
708,59	39,574
708,77	36,589
708,95	40,958
709,14	41,342
709,32	39,206
709,50	36,919
709,69	37,887
709,87	40,898
710,05	40,302
710,23	38,758
710,42	37,807
710,60	38,502
710,78	39,957
710,97	39,352
711,15	38,657
711,33	41,170
711,51	39,829
711,70	37,727
711,88	36,908
712,06	41,350
712,24	40,499
712,43	39,078
712,61	37,471
712,79	40,208
712,97	38,589
713,16	37,369
713,34	39,364
713,52	41,624
713,70	39,848
713,89	39,505
714,07	40,041
714,25	41,068
714,43	40,600
714,62	37,296
714,80	38,859
714,98	38,131
715,16	39,739
715,35	38,022
715,53	38,701
715,71	41,231
715,89	41,836
716,07	40,165
716,26	42,465
716,44	39,393
716,62	39,942
716,80	40,151
716,99	39,286
717,17	42,852
717,35	41,105
717,53	38,478
717,71	37,541
717,90	40,055
718,08	40,587
718,26	37,632
718,44	38,464
718,62	40,795
718,81	42,149
718,99	39,101
719,17	37,808
719,35	40,651
719,53	37,356
719,72	38,878
719,90	40,407
720,08	38,789
720,26	41,719
720,44	39,475
720,62	40,133
720,81	41,691
720,99	41,717
721,17	39,482
721,35	40,684
721,53	40,606
721,72	41,242
721,90	38,087
722,08	38,773
722,26	40,864
722,44	39,966
722,62	39,826
722,81	39,087
722,99	37,399
723,17	39,298
723,35	39,162
723,53	39,457
723,71	41,871
723,89	41,811
724,08	35,822
724,26	40,359
724,44	39,225
724,62	40,734
724,80	39,244
724,98	39,474
725,16	42,111
725,35	39,502
725,53	37,431
725,71	41,691
725,89	40,513
726,07	40,632
726,25	41,951
726,43	39,063
726,61	41,194
726,80	41,307
726,98	39,539
727,16	37,950
727,34	41,972
727,52	39,926
727,70	36,971
727,88	38,398
728,06	38,892
728,25	38,947
728,43	38,904
728,61	39,298
728,79	40,368
728,97	39,702
729,15	40,246
729,33	41,084
729,51	39,692
729,69	40,080
729,87	40,998
730,06	38,742
730,24	40,322
730,42	42,034
730,60	37,033
730,78	40,113
730,96	40,793
731,14	39,719
731,32	38,868
731,50	38,410
731,68	39,662
731,86	40,305
732,04	40,046
732,22	39,818
732,41	40,831
732,59	40,791
732,77	40,993
732,95	42,408
733,13	41,565
733,31	40,630
733,49	36,993
733,67	41,158
733,85	39,027
734,03	40,650
734,21	39,412
734,39	38,192
734,57	41,082
734,75	41,154
734,93	39,787
735,11	39,674
735,29	37,290
735,47	40,358
735,65	39,516
735,84	38,423
736,02	42,590
736,20	41,686
736,38	39,656
736,56	38,955
736,74	41,537
736,92	38,193
737,10	39,303
737,28	40,035
737,46	39,373
737,64	39,046
737,82	37,978
738,00	40,097
738,18	40,604
738,36	40,702
738,54	39,661
738,72	39,452
738,90	39,815
739,08	39,009
739,26	37,373
739,44	40,152
739,62	41,437
739,80	40,308
739,98	38,720
740,16	40,256
740,34	37,871
740,52	42,873
740,70	40,008
740,88	37,560
741,06	38,855
741,24	40,454
741,42	41,049
741,60	37,474
741,78	42,624
741,96	37,592
742,14	39,861
742,32	37,538
742,50	40,368
742,68	41,792
742,86	40,845
743,04	38,253
743,21	40,409
743,39	40,578
743,57	39,841
743,75	39,553
743,93	39,321
744,11	37,225
744,29	39,690
744,47	41,414
744,65	40,707
744,83	39,733
745,01	39,811
745,19	41,226
745,37	43,375
745,55	41,456
745,73	40,553
745,91	40,328
746,09	40,251
746,27	39,195
746,45	38,903
746,62	38,416
746,80	40,545
746,98	38,704
747,16	38,787
747,34	41,521
747,52	38,287
747,70	40,066
747,88	39,091
748,06	39,155
748,24	40,647
748,42	41,797
748,60	40,521
748,78	38,877
748,95	40,461
749,13	43,299
749,31	41,165
749,49	39,013
749,67	39,943
749,85	40,111
750,03	40,942
750,21	38,719
750,39	40,733
750,57	42,261
750,74	40,503
750,92	39,640
751,10	40,414
751,28	39,830
751,46	41,826
751,64	40,172
751,82	41,406
752,00	39,895
752,17	40,470
752,35	38,729
752,53	38,333
752,71	41,017
752,89	40,891
753,07	38,072
753,25	42,185
753,43	37,055
753,60	42,937
753,78	40,828
753,96	43,662
754,14	40,732
754,32	41,448
754,50	40,301
754,68	41,493
754,85	40,905
755,03	40,181
755,21	40,056
755,39	42,461
755,57	41,064
755,75	39,297
755,92	39,294
756,10	39,951
756,28	41,728
756,46	38,360
756,64	38,600
756,82	38,960
756,99	39,312
757,17	38,520
757,35	40,354
757,53	43,441
757,71	41,806
757,89	40,255
758,06	42,114
758,24	41,472
758,42	39,897
758,60	39,318
758,78	39,657
758,95	40,439
759,13	41,834
759,31	38,869
759,49	37,929
759,67	41,449
759,84	40,679
760,02	40,392
760,20	38,055
760,38	39,865
760,56	39,979
760,73	40,561
760,91	40,183
761,09	42,824
761,27	39,449
761,45	38,113
761,62	40,605
761,80	39,940
761,98	41,113
762,16	40,397
762,33	40,018
762,51	43,174
762,69	40,782
762,87	39,040
763,05	41,023
763,22	38,525
763,40	40,184
763,58	39,470
763,76	40,476
763,93	41,453
764,11	41,391
764,29	38,417
764,47	40,858
764,64	40,170
764,82	43,458
765,00	39,087
765,18	36,469
765,35	40,569
765,53	42,030
765,71	41,310
765,89	40,071
766,06	39,737
766,24	40,366
766,42	41,100
766,60	40,149
766,77	38,542
766,95	40,354
767,13	39,994
767,30	39,588
767,48	39,251
767,66	38,867
767,84	38,092
768,01	39,381
768,19	41,925
768,37	39,569
768,54	39,230
768,72	40,758
768,90	40,344
769,08	40,515
769,25	41,354
769,43	38,432
769,61	39,067
769,78	39,834
769,96	39,984
770,14	41,928
770,31	42,340
770,49	41,820
770,67	41,632
770,85	39,390
771,02	40,314
771,20	39,734
771,38	41,423
771,55	39,354
771,73	40,319
771,91	41,044
772,08	41,103
772,26	41,291
772,44	39,350
772,61	41,171
772,79	40,605
772,97	40,293
773,14	39,125
773,32	40,238
773,50	39,425
773,67	39,795
773,85	42,653
774,03	42,412
774,20	40,022
774,38	39,604
774,56	42,051
774,73	38,970
774,91	37,492
775,09	40,978
775,26	39,164
775,44	40,002
775,61	40,629
775,79	39,371
775,97	42,193
776,14	40,869
776,32	41,051
776,50	39,802
776,67	40,954
776,85	40,591
777,03	39,510
777,20	41,561
777,38	41,635
777,55	42,753
777,73	39,141
777,91	39,214
778,08	43,314
778,26	39,127
778,43	40,903
778,61	37,933
778,79	39,269
778,96	38,608
779,14	39,939
779,32	40,338
779,49	40,069
779,67	41,719
779,84	40,238
780,02	40,695
780,20	38,750
780,37	41,155
780,55	34,491
780,72	39,918
780,90	42,628
781,07	40,243
781,25	41,847
781,43	41,893
781,60	41,285
781,78	42,206
781,95	39,568
782,13	42,341
782,30	43,192
782,48	41,322
782,66	39,993
782,83	39,576
783,01	47,667
783,18	41,570
783,36	42,852
783,53	42,655
783,71	41,220
783,89	41,220
784,06	41,678
784,24	41,362
784,41	40,815
784,59	42,025
784,76	42,768
784,94	41,137
785,11	41,023
785,29	42,051
785,46	38,473
785,64	41,304
785,82	39,175
785,99	42,701
786,17	41,137
786,34	41,649
786,52	44,080
786,69	43,454
786,87	42,305
787,04	40,630
787,22	39,970
787,39	42,702
787,57	41,531
787,74	40,179
787,92	43,979
788,09	44,032
788,27	41,133
788,44	38,907
788,62	41,114
788,79	38,708
788,97	42,983
789,14	43,268
789,32	40,551
789,49	43,751
789,67	42,700
789,84	41,206
790,02	42,556
790,19	44,424
790,37	42,289
790,54	42,392
790,72	47,181
790,89	44,846
791,07	41,454
791,24	38,344
791,42	42,583
791,59	44,651
791,77	43,175
791,94	39,913
792,12	40,700
792,29	41,492
792,47	40,836
792,64	45,338
792,81	45,021
792,99	39,992
793,16	43,139
793,34	42,590
793,51	45,923
793,69	43,369
793,86	39,838
794,04	40,609
794,21	43,465
794,39	37,361
794,56	42,944
794,73	42,270
794,91	45,532
795,08	43,522
795,26	43,172
795,43	41,928
795,61	46,090
795,78	44,019
795,95	45,671
796,13	41,351
796,30	42,388
796,48	39,991
796,65	41,438
796,83	44,912
797,00	48,991
797,17	39,930
797,35	42,935
797,52	42,796
797,70	51,106
797,87	41,221
798,04	42,000
798,22	40,927
798,39	43,377
798,57	42,819
798,74	41,553
798,91	40,156
799,09	42,731
799,26	43,395
799,44	45,678
799,61	40,657
799,78	39,236
799,96	45,623
800,13	41,271
800,31	41,613
800,48	45,328
800,65	48,767
800,83	40,426
801,00	44,837
801,17	43,905
801,35	42,168
801,52	44,704
801,70	41,759
801,87	42,508
802,04	45,674
802,22	42,191
802,39	43,007
802,56	47,505
802,74	43,509
802,91	41,875
803,08	42,206
803,26	42,139
803,43	46,172
803,61	43,960
803,78	43,258
803,95	45,104
804,13	46,126
804,30	37,799
804,47	44,163
804,65	46,668
804,82	43,340
804,99	44,489
805,17	41,803
805,34	47,532
805,51	43,967
805,69	40,977
805,86	41,325
806,03	44,653
806,21	47,073
806,38	43,509
806,55	45,543
806,72	48,320
806,90	44,038
807,07	42,844
807,24	45,132
807,42	41,896
807,59	44,515
807,76	38,994
807,94	42,985
808,11	43,715
808,28	45,928
808,45	45,792
808,63	43,876
808,80	44,850
808,97	44,996
809,15	42,039
809,32	45,633
809,49	41,866
809,67	49,176
809,84	43,541
810,01	45,171
810,18	47,278
810,36	46,141
810,53	45,082
810,70	41,177
810,87	42,486
811,05	43,935
811,22	45,916
811,39	43,082
811,57	46,468
811,74	46,881
811,91	42,985
812,08	44,075
812,26	45,522
812,43	45,436
812,60	43,105
812,77	41,211
812,95	47,400
813,12	44,162
813,29	38,296
813,46	46,300
813,64	43,984
813,81	40,516
813,98	44,192
814,15	44,652
814,32	46,983
814,50	46,655
814,67	51,064
814,84	44,528
815,01	46,888
815,19	39,363
815,36	39,718
815,53	42,983
815,70	45,514
815,87	46,975
816,05	38,175
816,22	45,015
816,39	47,832
816,56	51,522
816,74	44,290
816,91	47,309
817,08	49,379
817,25	51,042
817,42	48,388
817,60	46,687
817,77	45,740
817,94	50,790
818,11	46,934
818,28	46,044
818,45	44,334
818,63	42,995
818,80	43,370
818,97	42,910
819,14	49,762
819,31	49,642
819,49	48,456
819,66	45,978
819,83	46,908
820,00	44,432
820,17	42,705
820,34	43,181
820,52	53,003
820,69	49,002
820,86	44,615
821,03	47,504
821,20	47,723
821,37	47,046
821,55	41,294
821,72	44,132
821,89	45,299
822,06	49,366
822,23	40,713
822,40	45,152
822,57	47,276
822,75	54,273
822,92	36,825
823,09	49,062
823,26	50,116
823,43	50,023
823,60	43,281
823,77	43,670
823,94	54,975
824,12	53,815
824,29	43,682
824,46	42,142
824,63	47,919
824,80	52,888
824,97	50,433
825,14	42,812
825,31	51,053
825,49	46,394
825,66	44,442
825,83	38,959
826,00	49,928
826,17	55,569
826,34	46,315
826,51	38,963
826,68	42,414
826,85	50,247
827,02	46,771
827,20	45,212
827,37	48,348
827,54	51,838
827,71	50,027
827,88	48,114
828,05	53,140
828,22	52,453
828,39	45,955
828,56	50,364
828,73	49,792
828,90	48,343
829,07	42,970
829,25	47,917
829,42	50,471
829,59	46,672
829,76	49,646
829,93	39,828
830,10	47,933
830,27	47,332
830,44	50,251
830,61	51,440
830,78	57,031
830,95	47,064
831,12	42,333
831,29	45,126
831,46	41,276
831,63	40,040
831,80	47,057
831,97	38,740
832,14	54,292
832,31	60,339
832,48	47,840
832,65	52,630
832,83	49,635
833,00	48,140
833,17	42,070
833,34	47,116
833,51	54,753
833,68	55,661
833,85	49,087
834,02	40,046
834,19	47,206
834,36	51,952
834,53	36,554
834,70	52,750
834,87	63,052
835,04	53,727
835,21	51,369
835,38	42,518
835,55	50,746
835,72	60,615
835,89	45,217
836,06	55,530
836,23	62,669
836,40	45,685
836,57	42,523
836,74	48,281
836,91	52,213
837,08	52,450
837,25	49,518
837,42	40,541
837,59	48,488
837,76	49,841
837,93	44,565
838,09	40,134
838,26	51,197
838,43	57,022
838,60	46,458
838,77	46,268
838,94	56,348
839,11	46,929
839,28	46,809
839,45	43,614
839,62	52,630
839,79	50,210
839,96	50,257
840,13	57,451
840,30	40,709
840,47	39,833
840,64	51,690
840,81	49,311
840,98	42,972
841,15	59,113
841,32	37,886
841,48	58,985
841,65	47,056
841,82	47,309
841,99	43,479
842,16	41,786
842,33	54,715
842,50	58,677
842,67	49,653
842,84	46,674
843,01	63,587
843,18	47,450
843,35	48,107
843,52	43,796
843,68	54,729
843,85	50,930
844,02	52,593
844,19	46,612
844,36	65,476
844,53	51,417
844,70	53,932
844,87	51,795
845,04	63,171
845,21	40,421
845,37	50,336
845,54	51,962
845,71	49,263
845,88	68,073
846,05	47,263
846,22	38,858
846,39	56,025
846,56	67,456
846,72	38,148
846,89	47,804
847,06	63,321
847,23	50,917
847,40	46,545
847,57	44,449
847,74	51,991
847,90	63,956
848,07	52,005
848,24	51,010
848,41	56,904
848,58	68,812
848,75	50,268
848,92	47,870
849,08	49,226
849,25	60,303
849,42	39,415
849,59	59,666
849,76	47,845
849,93	51,371
850,09	54,138
850,26	43,291
850,43	73,664
850,60	53,790
850,77	46,695
850,94	57,124
851,10	55,485
851,27	57,682
851,44	40,124
851,61	42,662
851,78	55,672
851,95	63,909
852,11	36,953
852,28	53,144
852,45	58,870
852,62	55,298
852,79	50,199
852,95	43,484
853,12	65,585
853,29	58,638
853,46	45,052
853,63	52,939
853,79	46,095
853,96	47,776
854,13	54,510
854,30	47,476
854,46	76,224
854,63	60,818
854,80	50,341
854,97	46,209
855,14	59,291
855,30	63,434
855,47	42,387
855,64	54,427
855,81	54,914
855,97	65,183
856,14	66,109
856,31	47,333
856,48	63,294
856,65	79,946
856,81	38,164
856,98	39,132
857,15	44,864
857,32	62,441
857,48	46,018
857,65	58,103
857,82	55,564
857,99	69,285
858,15	54,243
858,32	46,120
858,49	63,546
858,65	75,513
858,82	65,757
858,99	42,826
859,16	77,745
859,32	67,665
859,49	46,343
859,66	57,223
859,83	63,954
859,99	46,423
860,16	62,930
860,33	42,730
860,49	67,981
860,66	67,042
860,83	59,258
861,00	43,454
861,16	60,531
861,33	66,956
861,50	51,735
861,66	53,593
861,83	75,821
862,00	53,787
862,16	42,776
862,33	58,309
862,50	78,698
862,67	54,648
862,83	43,963
863,00	60,455
863,17	64,856
863,33	53,268
863,50	30,969
863,67	48,435
863,83	61,895
864,00	69,010
864,17	49,602
864,33	51,322
864,50	71,725
864,67	67,623
864,83	58,545
865,00	45,850
865,17	56,673
865,33	68,890
865,50	43,640
865,67	46,695
865,83	56,477
866,00	83,307
866,17	55,767
866,33	51,454
866,50	102,415
866,66	56,251
866,83	69,902
867,00	77,734
867,16	83,875
867,33	100,507
867,50	43,035
867,66	52,417
867,83	63,189
868,00	80,810
868,16	48,709
868,33	48,354
868,49	88,041
868,66	78,496
868,83	52,959
868,99	63,482
869,16	69,213
869,32	88,031
869,49	75,639
869,66	34,354
869,82	102,716
869,99	86,642
870,15	52,284
870,32	76,938
870,49	100,621
870,65	130,945
870,82	71,825
870,98	65,350
871,15	89,086
871,32	59,851
871,48	39,501
871,65	30,983
871,81	69,915
871,98	48,437
872,15	49,426
872,31	44,433
872,48	98,029
872,64	70,741
872,81	41,606
872,97	72,563
873,14	70,794
873,31	74,809
873,47	68,226
873,64	58,505
873,80	88,817
873,97	117,186
874,13	36,937
874,30	68,407
874,46	110,629
874,63	69,982
874,80	65,613
874,96	61,322
875,13	115,258
875,29	59,866
875,46	83,190
875,62	51,511
875,79	115,437
875,95	74,380
876,12	53,071
876,28	18,087
876,45	100,761
876,61	77,057
876,78	27,119
876,94	40,514
877,11	125,124
877,27	101,557
877,44	81,917
877,60	55,677
877,77	86,428
877,94	107,593
878,10	94,463
878,27	107,869
878,43	128,850
878,60	57,555
878,76	62,437
878,93	60,110
879,09	157,536
879,26	115,768
879,42	97,839
879,58	73,540
879,75	106,678
879,91	129,957
880,08	-7,253
880,24	79,201
880,41	87,615
880,57	65,146
880,74	40,263
880,90	56,753
881,07	63,661
881,23	143,189
881,40	63,460
881,56	82,614
881,73	123,703
881,89	95,365
882,06	72,892
882,22	205,149
882,38	155,684
882,55	105,898
882,71	62,029
882,88	47,182
883,04	110,674
883,21	180,177
883,37	85,298
883,54	107,704
883,70	233,357
883,86	116,555
884,03	49,000
884,19	34,389
884,36	8,960
884,52	190,049
884,69	117,050
884,85	48,653
885,01	184,569
885,18	113,165
885,34	110,226
885,51	21,347
885,67	74,104
>>>>> Data<<<<< Espectral Procesado Extremo
