Fichero De Datos De SpectraSuite
++++++++++++++++++++++++++++++++++++
Fecha: Wed Apr 22 11:33:00 CEST 2009
Usuario: evoflor
Presente Oscuro Del Espectro: Sí
La Referencia de Presente Del Espectro De: Sí
Muestreados de los componentes de Número de espectros: 1
Espectrómetros: USB4F02353
Tiempo de integración (usec): 500000 (USB4F02353)
Promedio de Espectros Hechos un: 5 (USB4F02353)
El Alisar Del Furgón: 0 (USB4F02353)
Párrafo de de Corregir del la del del de Eléctrica del obscuridad: Sí (USB4F02353)
Estrobo/Lámpara Permitido: No (USB4F02353)
Correct for Detector Non-linearity: No (USB4F02353)
Párrafo de de Corregir del la del del de Externa del luz: No (USB4F02353)
Procesado del espectro de Número de pixeles en: 3648
>>>>> Comienza Data<<<<< Espectral Procesado Del EL
177,79	220,406
178,00	220,406
178,22	220,406
178,44	632,747
178,66	-226,737
178,88	228,599
179,09	-735,404
179,31	233,252
179,53	387,368
179,75	208,795
179,96	884,655
180,18	-276,985
180,40	372,675
180,62	413,050
180,83	-148,678
181,05	10,732
181,27	-22520,000
181,49	29,304
181,70	380,846
181,92	580,305
182,14	558,494
182,36	44,704
182,58	-144,200
182,79	1185,357
183,01	-89,862
183,23	122,878
183,45	88,554
183,66	226,903
183,88	323,059
184,10	-3093,091
184,32	-69,010
184,53	201,618
184,75	-257,639
184,97	-12,806
185,18	-145,526
185,40	-571,250
185,62	172,673
185,84	37,380
186,05	188,903
186,27	-165,376
186,49	3116,154
186,71	1,463
186,92	103,410
187,14	-246,427
187,36	145,384
187,58	60,663
187,79	-15,076
188,01	267,110
188,23	-595,795
188,45	27,460
188,66	333,571
188,88	-1309,455
189,10	-1566,200
189,31	4,573
189,53	137,993
189,75	276,182
189,97	228,538
190,18	231,845
190,40	1244,235
190,62	-158,741
190,83	-301,206
191,05	248,998
191,27	239,200
191,49	398,812
191,70	-56,346
191,92	-663,729
192,14	-25,595
192,35	477,507
192,57	206,286
192,79	-80,899
193,01	163,560
193,22	89,488
193,44	-87,577
193,66	138,274
193,87	69,422
194,09	-51,926
194,31	178,959
194,53	1038,601
194,74	171,323
194,96	72,532
195,18	136,477
195,39	-448,865
195,61	-91,670
195,83	-297,435
196,04	128,242
196,26	-40,804
196,48	97,606
196,70	264,851
196,91	28,906
197,13	264,354
197,35	3,069
197,56	548,978
197,78	1833,731
198,00	623,217
198,21	581,165
198,43	-795,465
198,65	174,971
198,86	349,712
199,08	53,180
199,30	92,955
199,51	-313,746
199,73	204,165
199,95	98,069
200,16	661,231
200,38	276,120
200,60	132,268
200,81	161,927
201,03	41,630
201,25	-1503,200
201,46	120,312
201,68	116,230
201,90	2250,455
202,11	-240,534
202,33	143,842
202,55	292,750
202,76	16,453
202,98	91,010
203,20	73,462
203,41	-175,368
203,63	134,147
203,85	-114320,000
204,06	-52,158
204,28	-2,217
204,50	173,873
204,71	229,011
204,93	295,360
205,15	241,325
205,36	-345,927
205,58	264,338
205,80	-53,166
206,01	17,589
206,23	142,544
206,45	199,348
206,66	163,855
206,88	31,731
207,10	182,091
207,31	339,762
207,53	280,343
207,75	30,167
207,96	1061,343
208,18	-70,683
208,39	116,651
208,61	4140,571
208,83	-318,630
209,04	154,218
209,26	-593,180
209,48	180,755
209,69	151,000
209,91	440,946
210,13	86,746
210,34	292,058
210,56	156,305
210,77	-1084,409
210,99	102,800
211,21	7465,882
211,42	-172,146
211,64	-10,126
211,86	206,252
212,07	132,688
212,29	192,757
212,50	125,178
212,72	245,846
212,94	152,119
213,15	73,794
213,37	127,114
213,58	-137,738
213,80	-740,000
214,02	15142,353
214,23	344,927
214,45	457,443
214,67	-1723,415
214,88	-90,671
215,10	-328,028
215,31	3,974
215,53	-22,455
215,75	237,948
215,96	1582,112
216,18	165,070
216,39	296,690
216,61	387,162
216,83	12,143
217,04	1456,404
217,26	36,323
217,47	101,536
217,69	215,261
217,91	74,175
218,12	-91820,000
218,34	115,619
218,55	327,109
218,77	41,185
218,99	137,996
219,20	-168,476
219,42	411,616
219,63	134,286
219,85	-104,882
220,06	93,538
220,28	147,615
220,50	88,774
220,71	40,046
220,93	3702,264
221,14	-1872,200
221,36	77,400
221,58	-36,036
221,79	63,245
222,01	876,897
222,22	414,605
222,44	-222,247
222,65	139,006
222,87	1070,070
223,09	176,533
223,30	67,263
223,52	209,873
223,73	180,760
223,95	107,775
224,16	170,763
224,38	264,502
224,60	107,092
224,81	94,014
225,03	159,604
225,24	159,473
225,46	73,289
225,67	18,911
225,89	73,063
226,10	553,072
226,32	331,360
226,54	54,473
226,75	24,794
226,97	109,008
227,18	156,299
227,40	46,948
227,61	99,521
227,83	28,933
228,04	110,556
228,26	57,807
228,47	47,139
228,69	277,533
228,91	189,494
229,12	65,222
229,34	35,995
229,55	50,806
229,77	1,918
229,98	5,839
230,20	77,649
230,41	7,756
230,63	88,484
230,84	12,100
231,06	18,893
231,27	24,651
231,49	59,229
231,71	14,399
231,92	23,268
232,14	11,949
232,35	61,648
232,57	31,854
232,78	18,222
233,00	62,849
233,21	74,114
233,43	-0,240
233,64	20,959
233,86	54,495
234,07	35,789
234,29	8,078
234,50	21,272
234,72	43,340
234,93	7,604
235,15	23,922
235,36	23,021
235,58	17,621
235,79	45,216
236,01	18,779
236,22	17,579
236,44	49,335
236,65	22,303
236,87	30,217
237,08	18,292
237,30	1,420
237,51	17,495
237,73	6,971
237,94	23,371
238,16	26,088
238,37	10,971
238,59	16,269
238,80	15,184
239,02	16,083
239,23	24,337
239,45	6,475
239,66	33,100
239,88	33,413
240,09	25,784
240,31	1,390
240,52	13,126
240,74	13,626
240,95	11,091
241,17	6,117
241,38	6,367
241,60	8,921
241,81	29,952
242,03	8,344
242,24	15,462
242,46	27,811
242,67	9,422
242,89	17,921
243,10	27,145
243,32	25,090
243,53	20,157
243,75	11,465
243,96	11,444
244,18	14,122
244,39	20,473
244,60	16,039
244,82	9,428
245,03	24,777
245,25	14,567
245,46	25,123
245,68	14,668
245,89	18,352
246,11	17,196
246,32	15,443
246,54	12,733
246,75	15,173
246,97	16,728
247,18	25,109
247,39	15,858
247,61	8,154
247,82	20,363
248,04	8,805
248,25	16,350
248,47	18,320
248,68	14,493
248,90	10,044
249,11	17,848
249,33	23,775
249,54	15,962
249,75	19,136
249,97	14,288
250,18	20,224
250,40	19,594
250,61	1,144
250,83	7,418
251,04	7,379
251,25	19,304
251,47	7,497
251,68	14,823
251,90	15,612
252,11	17,715
252,33	11,370
252,54	13,572
252,76	13,181
252,97	8,335
253,18	7,387
253,40	10,685
253,61	9,930
253,83	14,016
254,04	15,630
254,25	13,661
254,47	6,972
254,68	14,079
254,90	11,542
255,11	14,318
255,33	12,559
255,54	13,517
255,75	9,084
255,97	14,439
256,18	10,437
256,40	9,804
256,61	8,671
256,82	8,572
257,04	13,114
257,25	7,986
257,47	12,882
257,68	6,730
257,89	16,806
258,11	17,027
258,32	14,007
258,54	11,606
258,75	16,935
258,96	17,862
259,18	10,120
259,39	11,514
259,61	14,699
259,82	10,969
260,03	14,032
260,25	9,754
260,46	8,169
260,68	12,137
260,89	10,801
261,10	10,406
261,32	11,050
261,53	10,696
261,75	16,102
261,96	11,020
262,17	19,147
262,39	16,517
262,60	7,365
262,81	6,978
263,03	16,648
263,24	11,937
263,46	10,292
263,67	13,506
263,88	10,954
264,10	12,288
264,31	7,177
264,52	11,470
264,74	10,769
264,95	10,358
265,17	12,605
265,38	11,294
265,59	12,578
265,81	16,186
266,02	8,444
266,23	6,637
266,45	17,266
266,66	14,108
266,87	13,970
267,09	6,803
267,30	17,339
267,52	18,328
267,73	13,877
267,94	8,068
268,16	11,680
268,37	11,943
268,58	13,619
268,80	8,060
269,01	13,353
269,22	13,169
269,44	10,474
269,65	11,649
269,86	11,484
270,08	15,895
270,29	11,583
270,50	12,152
270,72	14,527
270,93	10,965
271,14	10,739
271,36	8,585
271,57	12,784
271,78	11,356
272,00	16,313
272,21	13,778
272,42	15,978
272,64	14,576
272,85	7,772
273,06	8,621
273,28	14,396
273,49	13,887
273,70	12,031
273,92	11,354
274,13	14,173
274,34	8,667
274,56	15,737
274,77	9,934
274,98	15,662
275,20	12,836
275,41	11,659
275,62	12,619
275,84	13,159
276,05	17,964
276,26	9,663
276,47	5,553
276,69	14,838
276,90	12,154
277,11	13,219
277,33	8,465
277,54	12,601
277,75	14,842
277,97	10,087
278,18	10,519
278,39	14,478
278,61	11,663
278,82	13,264
279,03	9,988
279,24	11,246
279,46	10,606
279,67	14,798
279,88	9,523
280,10	13,810
280,31	6,186
280,52	12,201
280,73	7,780
280,95	16,958
281,16	16,329
281,37	10,889
281,59	13,285
281,80	18,531
282,01	10,952
282,22	8,911
282,44	9,020
282,65	19,501
282,86	13,221
283,08	10,132
283,29	12,993
283,50	12,324
283,71	13,235
283,93	11,493
284,14	14,531
284,35	10,118
284,56	12,132
284,78	6,912
284,99	11,256
285,20	13,142
285,42	12,186
285,63	8,447
285,84	6,924
286,05	10,679
286,27	12,390
286,48	8,359
286,69	9,443
286,90	10,954
287,12	11,154
287,33	11,122
287,54	10,036
287,75	12,722
287,97	12,245
288,18	10,886
288,39	10,305
288,60	11,767
288,82	12,547
289,03	10,798
289,24	10,623
289,45	12,522
289,67	9,647
289,88	6,221
290,09	12,076
290,30	14,004
290,52	8,208
290,73	8,830
290,94	5,140
291,15	8,673
291,37	13,806
291,58	10,424
291,79	11,664
292,00	11,725
292,21	13,542
292,43	10,701
292,64	9,374
292,85	8,490
293,06	13,807
293,28	7,730
293,49	8,473
293,70	13,506
293,91	8,582
294,12	10,590
294,34	12,906
294,55	11,546
294,76	10,635
294,97	13,133
295,19	7,623
295,40	12,331
295,61	9,922
295,82	6,573
296,03	10,511
296,25	11,588
296,46	10,200
296,67	6,904
296,88	6,328
297,09	13,146
297,31	11,761
297,52	8,408
297,73	7,021
297,94	13,249
298,15	11,904
298,37	10,336
298,58	10,567
298,79	11,002
299,00	6,933
299,21	9,484
299,43	7,805
299,64	12,565
299,85	9,308
300,06	7,737
300,27	10,624
300,49	13,956
300,70	11,391
300,91	8,726
301,12	9,397
301,33	12,895
301,54	10,053
301,76	10,936
301,97	9,784
302,18	8,682
302,39	12,123
302,60	10,915
302,82	10,561
303,03	11,878
303,24	11,539
303,45	11,467
303,66	9,729
303,87	11,135
304,09	12,199
304,30	7,510
304,51	9,124
304,72	9,552
304,93	11,285
305,14	11,965
305,36	7,905
305,57	7,814
305,78	10,599
305,99	7,662
306,20	9,806
306,41	10,301
306,62	9,528
306,84	8,432
307,05	7,441
307,26	8,310
307,47	15,690
307,68	10,448
307,89	11,210
308,11	11,081
308,32	9,244
308,53	9,085
308,74	6,131
308,95	9,842
309,16	13,343
309,37	12,048
309,59	9,971
309,80	10,491
310,01	9,576
310,22	9,754
310,43	10,368
310,64	10,910
310,85	14,356
311,06	9,818
311,28	10,393
311,49	9,514
311,70	13,903
311,91	7,935
312,12	11,515
312,33	10,015
312,54	12,241
312,75	9,921
312,97	8,955
313,18	13,920
313,39	7,255
313,60	10,315
313,81	11,101
314,02	10,044
314,23	13,402
314,44	5,760
314,65	9,210
314,87	8,852
315,08	9,613
315,29	9,159
315,50	10,953
315,71	11,586
315,92	15,309
316,13	10,611
316,34	12,821
316,55	10,876
316,77	5,071
316,98	8,202
317,19	9,136
317,40	11,357
317,61	11,441
317,82	9,347
318,03	6,921
318,24	9,294
318,45	13,121
318,66	10,256
318,87	7,208
319,09	11,520
319,30	11,239
319,51	11,797
319,72	13,721
319,93	10,973
320,14	10,828
320,35	10,511
320,56	9,286
320,77	6,435
320,98	14,425
321,19	10,680
321,40	10,169
321,62	9,306
321,83	9,628
322,04	11,150
322,25	10,283
322,46	15,793
322,67	12,049
322,88	8,701
323,09	10,433
323,30	11,284
323,51	14,385
323,72	11,823
323,93	7,422
324,14	8,741
324,35	4,956
324,56	6,169
324,77	8,760
324,99	10,704
325,20	7,592
325,41	9,351
325,62	9,606
325,83	9,053
326,04	9,585
326,25	10,506
326,46	8,741
326,67	10,878
326,88	9,898
327,09	9,174
327,30	10,266
327,51	11,717
327,72	12,411
327,93	11,758
328,14	7,410
328,35	10,457
328,56	11,282
328,77	9,689
328,98	11,608
329,19	9,878
329,40	11,722
329,61	9,126
329,82	6,635
330,04	9,727
330,25	5,546
330,46	9,953
330,67	6,650
330,88	9,550
331,09	9,162
331,30	8,250
331,51	10,033
331,72	13,336
331,93	12,217
332,14	8,769
332,35	10,377
332,56	9,876
332,77	13,411
332,98	6,541
333,19	7,307
333,40	11,423
333,61	9,156
333,82	13,889
334,03	9,342
334,24	13,561
334,45	8,768
334,66	9,214
334,87	10,711
335,08	8,241
335,29	6,706
335,50	8,595
335,71	7,159
335,92	11,959
336,13	13,486
336,34	5,934
336,55	11,957
336,76	10,242
336,97	10,392
337,18	7,567
337,39	7,289
337,60	11,910
337,81	10,365
338,02	7,202
338,23	7,689
338,44	10,190
338,65	10,088
338,86	10,829
339,07	7,161
339,28	11,368
339,49	11,156
339,70	7,471
339,91	10,605
340,11	13,861
340,32	10,204
340,53	4,315
340,74	7,086
340,95	6,476
341,16	10,729
341,37	7,281
341,58	7,806
341,79	8,735
342,00	6,841
342,21	10,282
342,42	5,525
342,63	9,183
342,84	8,068
343,05	8,732
343,26	10,086
343,47	10,955
343,68	8,264
343,89	7,210
344,10	10,084
344,31	12,313
344,52	9,834
344,73	7,373
344,94	9,044
345,14	11,002
345,35	10,604
345,56	11,437
345,77	9,906
345,98	11,908
346,19	10,881
346,40	9,511
346,61	9,641
346,82	9,519
347,03	9,432
347,24	10,910
347,45	8,234
347,66	11,475
347,87	8,717
348,08	9,879
348,28	8,356
348,49	11,621
348,70	10,006
348,91	10,359
349,12	5,591
349,33	24,478
349,54	10,398
349,75	12,082
349,96	8,384
350,17	10,464
350,38	5,438
350,59	11,386
350,80	8,946
351,00	13,250
351,21	12,244
351,42	9,149
351,63	9,409
351,84	11,385
352,05	12,569
352,26	7,790
352,47	10,395
352,68	11,223
352,89	12,046
353,09	11,704
353,30	6,020
353,51	9,827
353,72	13,659
353,93	10,696
354,14	7,274
354,35	11,329
354,56	9,747
354,77	8,065
354,98	4,038
355,18	10,786
355,39	16,011
355,60	8,777
355,81	10,561
356,02	11,523
356,23	11,183
356,44	9,146
356,65	9,152
356,85	14,884
357,06	10,215
357,27	10,874
357,48	8,427
357,69	10,375
357,90	11,014
358,11	3,628
358,32	8,533
358,52	12,094
358,73	7,386
358,94	7,063
359,15	12,215
359,36	12,350
359,57	10,135
359,78	10,652
359,98	9,037
360,19	8,615
360,40	10,606
360,61	11,384
360,82	10,038
361,03	12,800
361,24	12,305
361,44	9,499
361,65	5,783
361,86	9,273
362,07	9,777
362,28	9,647
362,49	6,755
362,70	10,191
362,90	9,453
363,11	4,747
363,32	7,859
363,53	10,324
363,74	12,019
363,95	13,426
364,15	9,312
364,36	13,268
364,57	7,719
364,78	10,283
364,99	8,644
365,20	12,238
365,40	13,342
365,61	7,664
365,82	11,336
366,03	10,581
366,24	11,655
366,45	8,878
366,65	8,530
366,86	10,175
367,07	11,500
367,28	10,569
367,49	10,363
367,69	13,833
367,90	11,183
368,11	7,878
368,32	7,301
368,53	13,670
368,73	12,168
368,94	8,762
369,15	7,379
369,36	15,211
369,57	12,473
369,78	9,960
369,98	12,629
370,19	12,219
370,40	8,306
370,61	10,722
370,82	10,305
371,02	12,742
371,23	13,786
371,44	8,682
371,65	11,990
371,85	12,048
372,06	10,189
372,27	6,897
372,48	8,890
372,69	6,820
372,89	7,951
373,10	5,419
373,31	9,030
373,52	11,414
373,73	11,491
373,93	11,272
374,14	7,925
374,35	10,776
374,56	11,075
374,76	9,157
374,97	7,294
375,18	11,786
375,39	11,604
375,60	12,392
375,80	13,496
376,01	9,336
376,22	14,795
376,43	11,410
376,63	9,338
376,84	11,473
377,05	12,160
377,26	7,836
377,46	6,174
377,67	8,949
377,88	13,489
378,09	10,584
378,29	9,399
378,50	13,079
378,71	14,560
378,92	9,898
379,12	11,032
379,33	10,684
379,54	10,835
379,75	12,893
379,95	9,725
380,16	13,167
380,37	12,658
380,58	10,335
380,78	11,368
380,99	8,601
381,20	9,151
381,41	12,370
381,61	13,682
381,82	13,127
382,03	10,658
382,24	9,934
382,44	11,689
382,65	13,110
382,86	14,353
383,06	13,160
383,27	11,947
383,48	11,368
383,69	13,760
383,89	11,337
384,10	13,078
384,31	12,600
384,51	12,155
384,72	13,517
384,93	12,892
385,14	13,610
385,34	12,706
385,55	12,702
385,76	8,983
385,96	13,403
386,17	13,995
386,38	15,517
386,59	15,013
386,79	11,120
387,00	13,877
387,21	12,384
387,41	16,924
387,62	11,175
387,83	17,216
388,03	12,844
388,24	9,595
388,45	13,584
388,66	13,922
388,86	13,391
389,07	13,030
389,28	17,638
389,48	12,917
389,69	11,243
389,90	12,259
390,10	15,883
390,31	16,102
390,52	9,958
390,72	10,376
390,93	13,591
391,14	13,110
391,34	14,095
391,55	16,239
391,76	19,146
391,96	13,402
392,17	10,839
392,38	14,888
392,58	14,853
392,79	15,004
393,00	12,051
393,20	13,022
393,41	16,186
393,62	14,446
393,82	14,837
394,03	16,290
394,24	14,450
394,44	17,181
394,65	17,030
394,86	13,343
395,06	18,037
395,27	14,311
395,48	15,988
395,68	18,832
395,89	18,369
396,10	18,688
396,30	13,079
396,51	13,384
396,72	20,663
396,92	14,542
397,13	18,670
397,34	12,360
397,54	17,324
397,75	14,034
397,95	11,083
398,16	16,770
398,37	13,821
398,57	16,177
398,78	18,478
398,99	17,674
399,19	15,865
399,40	19,249
399,60	12,405
399,81	15,439
400,02	19,139
400,22	19,155
400,43	14,842
400,64	16,246
400,84	14,574
401,05	19,070
401,25	18,886
401,46	17,601
401,67	19,570
401,87	18,289
402,08	15,106
402,29	18,087
402,49	17,726
402,70	20,797
402,90	12,336
403,11	14,849
403,32	16,969
403,52	17,626
403,73	17,173
403,93	19,982
404,14	23,263
404,35	17,994
404,55	16,097
404,76	14,498
404,96	15,005
405,17	19,595
405,38	21,170
405,58	16,761
405,79	24,022
405,99	19,740
406,20	17,347
406,40	13,925
406,61	23,204
406,82	22,986
407,02	22,469
407,23	20,107
407,43	18,174
407,64	17,549
407,85	19,755
408,05	17,985
408,26	26,519
408,46	23,117
408,67	15,684
408,87	18,034
409,08	18,353
409,29	26,562
409,49	24,381
409,70	20,814
409,90	19,855
410,11	21,580
410,31	21,602
410,52	21,174
410,72	18,035
410,93	22,967
411,14	17,895
411,34	17,140
411,55	21,812
411,75	24,473
411,96	23,128
412,16	21,639
412,37	17,358
412,57	21,097
412,78	23,585
412,99	20,463
413,19	24,770
413,40	19,462
413,60	18,619
413,81	18,041
414,01	23,488
414,22	19,228
414,42	22,360
414,63	16,083
414,83	25,107
415,04	25,303
415,24	25,436
415,45	21,352
415,65	22,085
415,86	24,192
416,07	19,565
416,27	24,694
416,48	23,579
416,68	27,310
416,89	16,864
417,09	20,321
417,30	25,627
417,50	23,691
417,71	24,089
417,91	23,738
418,12	20,039
418,32	18,364
418,53	24,211
418,73	23,258
418,94	20,868
419,14	24,614
419,35	21,104
419,55	23,590
419,76	23,717
419,96	24,856
420,17	19,187
420,37	24,426
420,58	27,336
420,78	22,956
420,99	22,321
421,19	25,206
421,40	25,259
421,60	27,232
421,81	22,794
422,01	25,047
422,22	26,238
422,42	27,956
422,63	23,583
422,83	21,271
423,04	23,795
423,24	27,865
423,45	21,234
423,65	25,873
423,86	26,513
424,06	24,390
424,27	20,285
424,47	22,075
424,67	19,399
424,88	23,634
425,08	24,781
425,29	27,549
425,49	20,569
425,70	16,057
425,90	24,320
426,11	23,664
426,31	22,344
426,52	22,900
426,72	24,725
426,93	22,729
427,13	26,705
427,33	21,545
427,54	26,689
427,74	26,612
427,95	28,870
428,15	22,782
428,36	23,934
428,56	25,937
428,77	27,404
428,97	23,793
429,18	23,896
429,38	21,364
429,58	24,342
429,79	23,816
429,99	23,956
430,20	18,924
430,40	26,947
430,61	27,655
430,81	20,819
431,01	26,953
431,22	26,265
431,42	29,969
431,63	21,902
431,83	23,836
432,04	24,949
432,24	26,301
432,44	23,049
432,65	21,091
432,85	25,479
433,06	27,664
433,26	23,848
433,47	21,835
433,67	24,760
433,87	22,111
434,08	21,540
434,28	23,876
434,49	23,138
434,69	27,067
434,89	22,149
435,10	19,155
435,30	27,646
435,51	22,295
435,71	21,841
435,91	23,806
436,12	22,812
436,32	23,646
436,53	24,522
436,73	22,287
436,93	25,199
437,14	26,321
437,34	27,470
437,55	24,010
437,75	27,860
437,95	27,883
438,16	24,574
438,36	24,182
438,57	22,086
438,77	22,627
438,97	29,958
439,18	29,766
439,38	24,975
439,58	26,661
439,79	25,906
439,99	24,026
440,20	28,966
440,40	27,612
440,60	29,015
440,81	31,057
441,01	23,404
441,21	25,118
441,42	29,218
441,62	27,796
441,83	30,236
442,03	26,046
442,23	26,354
442,44	27,094
442,64	28,710
442,84	22,963
443,05	25,675
443,25	24,959
443,45	27,550
443,66	24,696
443,86	21,516
444,06	25,157
444,27	28,619
444,47	27,426
444,67	24,425
444,88	25,178
445,08	26,880
445,28	25,598
445,49	26,581
445,69	27,506
445,90	27,758
446,10	27,632
446,30	28,608
446,51	26,967
446,71	30,529
446,91	30,945
447,12	31,026
447,32	27,363
447,52	31,011
447,72	27,689
447,93	24,580
448,13	23,804
448,33	31,435
448,54	32,897
448,74	24,757
448,94	30,292
449,15	31,625
449,35	29,653
449,55	26,701
449,76	30,850
449,96	29,618
450,16	32,864
450,37	27,844
450,57	27,772
450,77	23,363
450,98	28,826
451,18	29,250
451,38	26,554
451,58	31,064
451,79	29,475
451,99	28,173
452,19	25,860
452,40	29,187
452,60	23,661
452,80	26,233
453,00	32,125
453,21	30,352
453,41	34,305
453,61	32,942
453,82	31,382
454,02	25,214
454,22	34,213
454,42	30,400
454,63	28,308
454,83	27,547
455,03	29,825
455,24	32,800
455,44	27,101
455,64	28,507
455,84	28,519
456,05	28,413
456,25	25,880
456,45	27,997
456,65	30,803
456,86	28,885
457,06	33,605
457,26	34,245
457,47	36,403
457,67	31,377
457,87	27,671
458,07	30,810
458,28	34,913
458,48	32,692
458,68	28,026
458,88	34,014
459,09	31,545
459,29	36,141
459,49	30,853
459,69	31,252
459,90	34,525
460,10	27,967
460,30	29,245
460,50	29,959
460,71	34,806
460,91	29,222
461,11	32,007
461,31	29,027
461,52	37,085
461,72	28,652
461,92	31,512
462,12	36,622
462,32	25,896
462,53	29,903
462,73	30,061
462,93	34,516
463,13	30,669
463,34	31,007
463,54	30,599
463,74	35,764
463,94	29,833
464,14	30,555
464,35	27,019
464,55	35,156
464,75	35,765
464,95	33,441
465,16	28,664
465,36	30,034
465,56	26,507
465,76	28,224
465,96	26,268
466,17	31,123
466,37	30,670
466,57	35,251
466,77	30,242
466,97	32,663
467,18	37,724
467,38	31,742
467,58	31,831
467,78	36,356
467,98	34,332
468,19	33,793
468,39	36,428
468,59	34,877
468,79	32,942
468,99	33,096
469,19	30,326
469,40	36,733
469,60	26,338
469,80	29,146
470,00	37,301
470,20	36,321
470,41	32,860
470,61	34,271
470,81	37,145
471,01	31,087
471,21	35,810
471,41	33,112
471,62	35,043
471,82	30,768
472,02	32,124
472,22	31,793
472,42	33,884
472,62	34,391
472,83	33,324
473,03	37,995
473,23	30,758
473,43	38,752
473,63	31,416
473,83	34,105
474,03	33,291
474,24	37,973
474,44	32,471
474,64	32,560
474,84	35,292
475,04	34,192
475,24	33,784
475,45	33,166
475,65	32,606
475,85	35,327
476,05	31,487
476,25	31,976
476,45	34,379
476,65	39,989
476,85	35,531
477,06	29,773
477,26	32,682
477,46	33,407
477,66	33,294
477,86	36,739
478,06	35,880
478,26	38,527
478,46	33,233
478,67	35,329
478,87	34,257
479,07	32,916
479,27	38,195
479,47	33,866
479,67	27,597
479,87	33,268
480,07	37,769
480,28	35,362
480,48	32,308
480,68	35,221
480,88	41,037
481,08	36,554
481,28	37,218
481,48	36,088
481,68	34,340
481,88	34,654
482,08	33,041
482,29	35,572
482,49	34,828
482,69	35,662
482,89	35,383
483,09	36,878
483,29	34,196
483,49	33,654
483,69	35,753
483,89	34,376
484,09	35,648
484,29	32,198
484,50	34,018
484,70	34,365
484,90	31,779
485,10	33,327
485,30	36,439
485,50	36,805
485,70	36,679
485,90	32,539
486,10	30,979
486,30	33,416
486,50	31,810
486,70	32,601
486,90	33,335
487,10	36,591
487,30	34,352
487,51	35,013
487,71	30,269
487,91	31,571
488,11	35,119
488,31	31,604
488,51	35,187
488,71	33,164
488,91	34,587
489,11	32,599
489,31	32,500
489,51	35,008
489,71	34,105
489,91	32,398
490,11	32,246
490,31	34,968
490,51	37,119
490,71	35,586
490,91	32,514
491,11	37,287
491,31	38,326
491,51	32,185
491,72	36,627
491,92	36,663
492,12	38,639
492,32	37,274
492,52	37,668
492,72	37,613
492,92	38,332
493,12	36,805
493,32	34,318
493,52	33,565
493,72	34,426
493,92	39,110
494,12	35,516
494,32	38,378
494,52	37,387
494,72	37,358
494,92	34,740
495,12	35,857
495,32	37,534
495,52	36,027
495,72	37,383
495,92	38,723
496,12	39,237
496,32	33,118
496,52	37,198
496,72	34,570
496,92	38,074
497,12	34,961
497,32	37,998
497,52	36,736
497,72	41,921
497,92	39,528
498,12	35,211
498,32	36,476
498,52	37,869
498,72	37,616
498,92	36,759
499,12	42,518
499,32	35,003
499,52	37,842
499,72	40,752
499,92	40,477
500,12	38,556
500,32	41,384
500,52	39,111
500,72	40,744
500,91	44,051
501,11	39,559
501,31	36,275
501,51	38,893
501,71	42,281
501,91	40,812
502,11	37,501
502,31	37,921
502,51	41,429
502,71	37,510
502,91	41,045
503,11	38,636
503,31	41,485
503,51	36,713
503,71	37,564
503,91	42,916
504,11	40,453
504,31	40,314
504,51	40,303
504,71	46,063
504,91	40,411
505,10	38,866
505,30	39,638
505,50	40,395
505,70	39,562
505,90	39,648
506,10	39,147
506,30	41,034
506,50	40,221
506,70	41,649
506,90	40,257
507,10	42,586
507,30	39,871
507,50	41,246
507,70	39,497
507,89	38,827
508,09	40,484
508,29	38,705
508,49	41,979
508,69	40,848
508,89	39,115
509,09	39,902
509,29	39,729
509,49	41,372
509,69	44,568
509,89	40,861
510,09	37,588
510,28	42,743
510,48	41,367
510,68	40,421
510,88	41,165
511,08	36,261
511,28	38,347
511,48	38,838
511,68	38,638
511,88	36,399
512,07	39,828
512,27	40,285
512,47	40,031
512,67	38,408
512,87	37,301
513,07	40,343
513,27	38,167
513,47	38,294
513,67	37,523
513,86	42,390
514,06	39,639
514,26	39,779
514,46	42,931
514,66	39,529
514,86	40,786
515,06	43,103
515,26	42,260
515,45	44,766
515,65	38,450
515,85	41,528
516,05	39,774
516,25	40,537
516,45	44,035
516,65	38,587
516,84	41,700
517,04	41,186
517,24	39,812
517,44	42,337
517,64	42,830
517,84	45,009
518,04	42,988
518,23	42,967
518,43	45,718
518,63	38,748
518,83	39,112
519,03	40,109
519,23	43,960
519,42	41,310
519,62	40,856
519,82	40,947
520,02	40,269
520,22	42,526
520,42	39,009
520,61	42,136
520,81	41,887
521,01	43,822
521,21	38,941
521,41	39,789
521,61	43,035
521,80	39,804
522,00	43,675
522,20	42,971
522,40	42,711
522,60	41,988
522,79	41,583
522,99	43,963
523,19	38,517
523,39	39,536
523,59	40,400
523,78	42,568
523,98	41,008
524,18	39,806
524,38	38,230
524,58	41,035
524,77	43,965
524,97	41,244
525,17	39,767
525,37	41,482
525,57	42,149
525,76	38,764
525,96	42,447
526,16	37,910
526,36	37,014
526,56	42,352
526,75	40,339
526,95	38,461
527,15	39,000
527,35	42,866
527,55	39,406
527,74	42,912
527,94	39,608
528,14	39,274
528,34	40,894
528,53	37,676
528,73	43,467
528,93	40,196
529,13	40,559
529,32	39,464
529,52	40,125
529,72	38,884
529,92	38,069
530,12	39,888
530,31	40,089
530,51	40,151
530,71	43,024
530,91	40,440
531,10	35,839
531,30	39,492
531,50	39,919
531,70	42,955
531,89	42,436
532,09	40,086
532,29	38,499
532,49	39,106
532,68	40,460
532,88	38,893
533,08	40,039
533,28	38,704
533,47	40,030
533,67	40,076
533,87	41,076
534,06	46,654
534,26	39,788
534,46	39,059
534,66	41,858
534,85	42,599
535,05	36,671
535,25	37,406
535,45	37,371
535,64	40,382
535,84	40,062
536,04	37,850
536,23	40,623
536,43	42,327
536,63	38,360
536,83	39,093
537,02	39,416
537,22	38,434
537,42	38,706
537,61	39,146
537,81	37,698
538,01	37,624
538,20	38,187
538,40	34,892
538,60	37,245
538,80	37,217
538,99	35,615
539,19	35,404
539,39	35,300
539,58	35,216
539,78	32,139
539,98	31,445
540,17	30,760
540,37	31,640
540,57	30,301
540,76	30,577
540,96	29,868
541,16	32,182
541,36	28,540
541,55	26,139
541,75	27,676
541,95	28,677
542,14	27,499
542,34	25,649
542,54	27,272
542,73	26,486
542,93	27,286
543,13	25,067
543,32	25,374
543,52	26,465
543,72	25,139
543,91	26,709
544,11	27,043
544,31	25,981
544,50	27,007
544,70	28,301
544,89	28,105
545,09	28,248
545,29	27,015
545,48	26,958
545,68	28,300
545,88	28,427
546,07	27,867
546,27	27,910
546,47	31,528
546,66	31,241
546,86	30,799
547,06	29,538
547,25	30,097
547,45	32,642
547,64	33,965
547,84	38,278
548,04	31,981
548,23	37,148
548,43	35,313
548,63	36,023
548,82	35,063
549,02	34,260
549,21	33,779
549,41	36,443
549,61	37,142
549,80	36,080
550,00	37,983
550,20	33,093
550,39	36,634
550,59	36,914
550,78	38,187
550,98	33,544
551,18	35,791
551,37	38,707
551,57	36,579
551,76	37,273
551,96	38,115
552,16	36,477
552,35	38,235
552,55	36,828
552,74	37,433
552,94	37,393
553,14	35,664
553,33	37,852
553,53	37,535
553,72	38,457
553,92	39,730
554,12	36,737
554,31	36,525
554,51	38,760
554,70	36,343
554,90	37,045
555,09	39,023
555,29	40,412
555,49	37,678
555,68	40,828
555,88	39,237
556,07	36,513
556,27	39,950
556,46	37,233
556,66	34,364
556,86	40,705
557,05	36,816
557,25	40,665
557,44	37,038
557,64	36,662
557,83	39,950
558,03	38,391
558,22	37,203
558,42	39,956
558,62	40,642
558,81	39,139
559,01	37,072
559,20	39,428
559,40	39,515
559,59	38,651
559,79	36,589
559,98	40,177
560,18	38,859
560,37	39,792
560,57	35,854
560,76	36,950
560,96	39,010
561,16	38,511
561,35	41,955
561,55	42,870
561,74	39,429
561,94	40,600
562,13	38,561
562,33	39,038
562,52	39,205
562,72	38,173
562,91	37,889
563,11	39,156
563,30	43,252
563,50	35,108
563,69	37,092
563,89	37,223
564,08	39,367
564,28	37,604
564,47	38,566
564,67	40,761
564,86	39,863
565,06	37,864
565,25	38,330
565,45	39,904
565,64	40,326
565,84	37,415
566,03	36,089
566,23	40,843
566,42	37,571
566,62	39,994
566,81	40,717
567,01	37,971
567,20	41,125
567,40	36,946
567,59	37,323
567,79	39,017
567,98	42,069
568,18	39,363
568,37	39,602
568,57	40,049
568,76	41,179
568,96	37,976
569,15	37,429
569,35	41,532
569,54	41,990
569,73	40,314
569,93	38,442
570,12	38,919
570,32	39,267
570,51	40,217
570,71	40,024
570,90	40,892
571,10	37,275
571,29	38,973
571,49	39,748
571,68	41,976
571,87	40,283
572,07	37,431
572,26	38,374
572,46	39,249
572,65	39,757
572,85	36,815
573,04	40,350
573,24	37,465
573,43	41,165
573,62	42,007
573,82	40,448
574,01	41,557
574,21	39,518
574,40	37,276
574,60	38,045
574,79	40,912
574,98	37,978
575,18	40,609
575,37	39,321
575,57	38,814
575,76	41,932
575,96	40,615
576,15	39,398
576,34	38,510
576,54	40,227
576,73	38,818
576,93	38,665
577,12	40,430
577,31	40,222
577,51	39,014
577,70	38,356
577,90	38,416
578,09	38,309
578,28	37,932
578,48	39,250
578,67	40,037
578,87	39,572
579,06	37,925
579,25	39,320
579,45	38,800
579,64	37,270
579,84	37,412
580,03	37,888
580,22	39,993
580,42	36,687
580,61	38,523
580,81	37,640
581,00	38,386
581,19	39,518
581,39	38,077
581,58	37,339
581,77	39,020
581,97	40,195
582,16	37,476
582,35	36,852
582,55	37,910
582,74	39,289
582,94	38,020
583,13	36,236
583,32	37,181
583,52	39,006
583,71	39,259
583,90	37,886
584,10	37,326
584,29	39,777
584,48	37,389
584,68	38,077
584,87	39,880
585,06	38,545
585,26	37,243
585,45	37,087
585,65	39,734
585,84	36,090
586,03	38,055
586,23	37,509
586,42	37,526
586,61	39,389
586,81	37,838
587,00	37,956
587,19	37,106
587,39	38,163
587,58	38,043
587,77	37,566
587,97	36,920
588,16	37,873
588,35	38,390
588,54	38,262
588,74	37,205
588,93	38,980
589,12	39,624
589,32	37,995
589,51	38,768
589,70	37,700
589,90	37,190
590,09	39,077
590,28	40,143
590,48	37,809
590,67	38,714
590,86	40,543
591,06	37,465
591,25	38,509
591,44	40,933
591,63	39,574
591,83	39,223
592,02	38,307
592,21	37,259
592,41	37,703
592,60	39,463
592,79	38,585
592,98	38,927
593,18	38,674
593,37	38,943
593,56	40,656
593,76	40,072
593,95	38,231
594,14	37,905
594,33	41,558
594,53	39,378
594,72	40,620
594,91	40,480
595,10	40,576
595,30	38,829
595,49	38,685
595,68	39,250
595,88	41,314
596,07	40,535
596,26	40,460
596,45	39,904
596,65	39,599
596,84	39,067
597,03	39,428
597,22	42,455
597,42	43,529
597,61	40,460
597,80	40,479
597,99	40,316
598,19	40,763
598,38	40,368
598,57	39,242
598,76	41,605
598,95	40,830
599,15	40,493
599,34	38,529
599,53	40,420
599,72	39,729
599,92	39,657
600,11	40,131
600,30	39,715
600,49	39,643
600,69	39,444
600,88	40,421
601,07	40,339
601,26	40,565
601,45	39,602
601,65	39,435
601,84	41,193
602,03	41,223
602,22	41,233
602,42	44,070
602,61	39,554
602,80	42,590
602,99	41,766
603,18	40,457
603,38	41,836
603,57	40,131
603,76	40,167
603,95	40,104
604,14	41,921
604,34	40,742
604,53	39,240
604,72	42,503
604,91	41,360
605,10	40,942
605,29	39,809
605,49	38,764
605,68	41,910
605,87	42,130
606,06	39,941
606,25	36,887
606,45	40,319
606,64	39,347
606,83	39,669
607,02	38,441
607,21	40,745
607,40	39,506
607,60	38,362
607,79	36,632
607,98	36,366
608,17	36,791
608,36	36,816
608,55	37,196
608,75	37,052
608,94	36,504
609,13	32,844
609,32	31,179
609,51	33,093
609,70	32,737
609,89	32,962
610,09	32,489
610,28	34,302
610,47	32,560
610,66	31,279
610,85	30,784
611,04	33,301
611,23	31,268
611,43	31,861
611,62	31,153
611,81	30,538
612,00	31,430
612,19	31,273
612,38	33,036
612,57	33,727
612,77	33,349
612,96	33,005
613,15	33,481
613,34	34,984
613,53	35,017
613,72	36,476
613,91	36,259
614,10	35,918
614,29	38,259
614,49	35,630
614,68	35,700
614,87	38,191
615,06	40,230
615,25	36,538
615,44	39,042
615,63	37,006
615,82	35,433
616,01	36,239
616,21	37,191
616,40	39,043
616,59	41,467
616,78	36,707
616,97	39,320
617,16	38,401
617,35	40,540
617,54	37,820
617,73	39,952
617,92	37,161
618,11	38,104
618,31	38,143
618,50	39,690
618,69	38,438
618,88	36,657
619,07	35,226
619,26	35,293
619,45	37,629
619,64	36,265
619,83	36,775
620,02	37,201
620,21	40,231
620,40	38,361
620,59	38,090
620,78	36,337
620,97	38,571
621,17	40,333
621,36	38,330
621,55	37,552
621,74	38,693
621,93	39,469
622,12	38,384
622,31	37,117
622,50	39,214
622,69	40,427
622,88	39,862
623,07	40,243
623,26	37,813
623,45	41,036
623,64	37,922
623,83	38,304
624,02	40,797
624,21	39,788
624,40	39,708
624,59	37,942
624,78	38,781
624,97	40,970
625,16	36,985
625,35	35,975
625,54	38,031
625,73	39,239
625,92	38,891
626,12	38,280
626,31	40,999
626,50	39,573
626,69	39,019
626,88	36,854
627,07	40,343
627,26	39,062
627,45	37,296
627,64	37,618
627,83	38,948
628,02	38,264
628,21	37,997
628,40	36,806
628,59	38,830
628,78	37,639
628,97	38,117
629,16	36,920
629,35	38,356
629,54	40,205
629,73	37,889
629,92	36,971
630,10	38,593
630,29	38,382
630,48	38,858
630,67	37,580
630,86	38,955
631,05	37,110
631,24	39,400
631,43	36,413
631,62	38,536
631,81	37,685
632,00	38,860
632,19	36,394
632,38	38,807
632,57	40,276
632,76	38,912
632,95	38,817
633,14	40,414
633,33	39,359
633,52	38,761
633,71	40,419
633,90	38,457
634,09	40,392
634,28	40,666
634,47	38,477
634,66	39,460
634,85	39,578
635,04	41,012
635,22	39,041
635,41	39,966
635,60	41,923
635,79	40,161
635,98	38,204
636,17	37,870
636,36	39,248
636,55	39,170
636,74	38,131
636,93	38,971
637,12	40,860
637,31	37,986
637,50	37,999
637,69	39,612
637,87	39,089
638,06	37,484
638,25	38,725
638,44	40,421
638,63	36,820
638,82	39,104
639,01	38,038
639,20	38,760
639,39	40,898
639,58	37,002
639,77	40,166
639,95	39,446
640,14	40,340
640,33	38,411
640,52	39,016
640,71	40,585
640,90	38,749
641,09	40,908
641,28	39,228
641,47	40,994
641,66	41,359
641,84	39,031
642,03	37,290
642,22	39,410
642,41	42,318
642,60	39,936
642,79	38,253
642,98	40,426
643,17	38,161
643,35	37,143
643,54	38,800
643,73	41,233
643,92	38,982
644,11	38,547
644,30	38,745
644,49	42,029
644,67	38,926
644,86	38,617
645,05	42,104
645,24	38,374
645,43	39,440
645,62	40,279
645,81	39,609
645,99	39,952
646,18	41,726
646,37	38,815
646,56	39,675
646,75	39,533
646,94	40,463
647,13	37,863
647,31	38,888
647,50	38,440
647,69	41,448
647,88	40,652
648,07	38,600
648,26	42,611
648,44	39,001
648,63	38,824
648,82	39,053
649,01	38,695
649,20	38,383
649,38	38,897
649,57	39,591
649,76	37,305
649,95	39,982
650,14	36,625
650,33	37,170
650,51	38,789
650,70	39,843
650,89	38,085
651,08	38,296
651,27	40,368
651,45	37,142
651,64	37,643
651,83	40,056
652,02	37,787
652,21	40,335
652,39	40,612
652,58	40,053
652,77	40,794
652,96	40,819
653,15	39,551
653,33	38,645
653,52	40,619
653,71	42,370
653,90	41,215
654,09	39,813
654,27	39,941
654,46	42,030
654,65	39,538
654,84	41,057
655,02	42,026
655,21	42,608
655,40	41,694
655,59	41,021
655,77	41,744
655,96	40,468
656,15	40,313
656,34	40,994
656,53	40,239
656,71	39,748
656,90	39,196
657,09	40,022
657,28	39,055
657,46	38,733
657,65	38,503
657,84	39,011
658,03	39,612
658,21	39,677
658,40	37,670
658,59	36,301
658,78	39,905
658,96	38,661
659,15	39,036
659,34	37,225
659,52	37,869
659,71	39,631
659,90	36,719
660,09	37,087
660,27	38,235
660,46	38,221
660,65	37,146
660,84	37,176
661,02	37,047
661,21	39,763
661,40	36,446
661,58	38,650
661,77	38,229
661,96	35,085
662,15	37,559
662,33	35,811
662,52	37,233
662,71	38,195
662,89	35,141
663,08	38,332
663,27	36,844
663,45	37,272
663,64	35,960
663,83	35,952
664,02	34,868
664,20	36,497
664,39	36,206
664,58	37,004
664,76	37,032
664,95	37,996
665,14	35,942
665,32	34,863
665,51	38,052
665,70	35,976
665,88	36,245
666,07	36,072
666,26	38,655
666,44	37,107
666,63	35,150
666,82	35,119
667,00	36,910
667,19	35,291
667,38	35,568
667,56	38,075
667,75	36,146
667,94	38,538
668,12	35,413
668,31	36,671
668,50	36,810
668,68	35,707
668,87	36,479
669,06	36,372
669,24	37,156
669,43	35,971
669,62	34,059
669,80	34,913
669,99	35,715
670,18	35,438
670,36	34,529
670,55	35,876
670,74	36,189
670,92	33,614
671,11	36,339
671,29	35,381
671,48	34,628
671,67	36,266
671,85	34,760
672,04	35,733
672,23	35,209
672,41	34,440
672,60	35,788
672,78	34,567
672,97	34,637
673,16	34,531
673,34	35,149
673,53	33,580
673,71	35,949
673,90	36,886
674,09	34,931
674,27	34,921
674,46	34,697
674,64	35,691
674,83	34,701
675,02	31,803
675,20	34,235
675,39	34,392
675,57	35,579
675,76	33,557
675,95	37,034
676,13	35,692
676,32	34,496
676,50	35,174
676,69	33,639
676,88	34,970
677,06	34,827
677,25	35,691
677,43	37,476
677,62	35,424
677,80	34,193
677,99	36,110
678,18	35,919
678,36	35,778
678,55	33,855
678,73	34,952
678,92	36,664
679,10	37,873
679,29	34,905
679,48	34,120
679,66	34,213
679,85	35,563
680,03	35,204
680,22	34,987
680,40	35,346
680,59	35,428
680,77	35,960
680,96	35,544
681,15	34,795
681,33	34,856
681,52	34,705
681,70	35,794
681,89	38,317
682,07	35,839
682,26	35,686
682,44	35,889
682,63	35,500
682,81	35,368
683,00	37,263
683,18	34,412
683,37	36,766
683,55	34,402
683,74	36,907
683,92	41,864
684,11	36,508
684,29	38,386
684,48	35,539
684,67	36,787
684,85	37,386
685,04	36,581
685,22	37,435
685,41	36,728
685,59	37,907
685,78	35,980
685,96	37,010
686,15	37,390
686,33	36,412
686,52	36,224
686,70	36,870
686,89	37,750
687,07	38,696
687,26	37,150
687,44	37,312
687,62	35,702
687,81	38,415
687,99	37,408
688,18	37,439
688,36	37,040
688,55	37,553
688,73	38,803
688,92	36,826
689,10	39,129
689,29	38,859
689,47	41,031
689,66	37,355
689,84	37,885
690,03	39,411
690,21	37,735
690,40	38,455
690,58	38,127
690,76	38,726
690,95	39,067
691,13	37,448
691,32	38,958
691,50	40,122
691,69	39,499
691,87	37,105
692,06	37,535
692,24	38,855
692,43	40,224
692,61	37,266
692,79	37,767
692,98	38,481
693,16	40,563
693,35	38,299
693,53	39,626
693,72	39,329
693,90	39,683
694,08	38,178
694,27	39,253
694,45	42,420
694,64	42,147
694,82	37,470
695,01	39,371
695,19	39,129
695,37	40,609
695,56	40,058
695,74	40,308
695,93	41,568
696,11	38,336
696,29	40,063
696,48	39,726
696,66	40,999
696,85	39,928
697,03	38,911
697,21	41,486
697,40	40,556
697,58	39,564
697,77	39,396
697,95	41,359
698,13	41,023
698,32	40,550
698,50	38,339
698,69	38,733
698,87	40,927
699,05	39,035
699,24	37,380
699,42	40,454
699,60	39,463
699,79	39,090
699,97	39,993
700,16	38,335
700,34	40,509
700,52	38,680
700,71	39,481
700,89	39,438
701,07	39,593
701,26	41,334
701,44	39,445
701,63	37,943
701,81	41,019
701,99	40,988
702,18	39,799
702,36	38,789
702,54	40,675
702,73	39,236
702,91	38,758
703,09	38,317
703,28	38,086
703,46	40,479
703,64	37,387
703,83	38,904
704,01	42,289
704,19	40,057
704,38	38,646
704,56	37,687
704,74	40,686
704,93	40,543
705,11	39,973
705,29	41,079
705,48	43,718
705,66	40,305
705,84	40,202
706,03	38,447
706,21	40,140
706,39	40,687
706,58	38,646
706,76	38,457
706,94	40,445
707,12	40,409
707,31	39,235
707,49	38,438
707,67	40,377
707,86	43,043
708,04	39,778
708,22	38,802
708,41	39,354
708,59	41,102
708,77	37,223
708,95	41,023
709,14	42,310
709,32	40,748
709,50	38,597
709,69	39,463
709,87	38,394
710,05	40,269
710,23	39,622
710,42	37,928
710,60	40,332
710,78	41,857
710,97	39,531
711,15	41,726
711,33	40,673
711,51	40,394
711,70	38,447
711,88	38,905
712,06	42,490
712,24	40,339
712,43	40,201
712,61	39,728
712,79	40,789
712,97	37,599
713,16	40,763
713,34	38,533
713,52	40,917
713,70	40,650
713,89	40,004
714,07	39,708
714,25	39,540
714,43	42,215
714,62	38,529
714,80	39,607
714,98	38,854
715,16	40,160
715,35	36,897
715,53	39,572
715,71	40,272
715,89	41,592
716,07	39,414
716,26	43,009
716,44	42,002
716,62	40,157
716,80	42,901
716,99	39,654
717,17	41,719
717,35	39,881
717,53	40,699
717,71	38,738
717,90	40,484
718,08	39,891
718,26	37,550
718,44	40,867
718,62	41,773
718,81	41,453
718,99	37,761
719,17	39,133
719,35	40,070
719,53	40,457
719,72	38,487
719,90	40,631
720,08	39,110
720,26	42,498
720,44	38,734
720,62	38,996
720,81	42,876
720,99	42,723
721,17	40,430
721,35	41,452
721,53	40,775
721,72	43,039
721,90	39,856
722,08	40,471
722,26	42,023
722,44	41,184
722,62	39,284
722,81	40,045
722,99	40,690
723,17	40,755
723,35	40,654
723,53	40,200
723,71	41,287
723,89	42,265
724,08	35,569
724,26	41,052
724,44	39,754
724,62	40,453
724,80	39,089
724,98	41,448
725,16	43,625
725,35	41,075
725,53	40,021
725,71	39,034
725,89	40,829
726,07	42,664
726,25	41,781
726,43	40,776
726,61	39,890
726,80	39,901
726,98	39,985
727,16	40,150
727,34	40,613
727,52	40,014
727,70	39,774
727,88	39,356
728,06	38,448
728,25	38,277
728,43	41,174
728,61	40,683
728,79	39,963
728,97	41,255
729,15	40,689
729,33	40,026
729,51	40,031
729,69	43,526
729,87	41,354
730,06	42,562
730,24	40,251
730,42	43,777
730,60	39,419
730,78	40,026
730,96	42,069
731,14	41,142
731,32	40,115
731,50	39,265
731,68	38,712
731,86	42,272
732,04	41,484
732,22	40,696
732,41	45,193
732,59	41,046
732,77	42,716
732,95	41,696
733,13	42,388
733,31	41,699
733,49	38,639
733,67	42,332
733,85	39,562
734,03	41,016
734,21	42,320
734,39	40,654
734,57	42,192
734,75	40,322
734,93	38,291
735,11	41,631
735,29	38,256
735,47	43,404
735,65	40,274
735,84	39,773
736,02	40,789
736,20	43,397
736,38	40,094
736,56	40,574
736,74	39,369
736,92	39,770
737,10	41,234
737,28	42,001
737,46	41,217
737,64	41,132
737,82	38,403
738,00	41,740
738,18	41,697
738,36	40,981
738,54	39,904
738,72	39,110
738,90	40,893
739,08	42,041
739,26	38,025
739,44	39,769
739,62	42,325
739,80	41,938
739,98	40,001
740,16	40,458
740,34	39,901
740,52	42,405
740,70	38,901
740,88	38,859
741,06	40,340
741,24	40,260
741,42	41,523
741,60	39,228
741,78	43,599
741,96	41,167
742,14	38,687
742,32	39,510
742,50	42,140
742,68	41,580
742,86	39,964
743,04	39,502
743,21	39,119
743,39	40,025
743,57	39,458
743,75	40,633
743,93	39,415
744,11	37,692
744,29	39,548
744,47	39,389
744,65	38,920
744,83	38,302
745,01	40,195
745,19	43,608
745,37	41,040
745,55	43,176
745,73	41,854
745,91	38,908
746,09	40,278
746,27	39,138
746,45	38,415
746,62	39,253
746,80	40,555
746,98	40,692
747,16	39,260
747,34	39,631
747,52	38,215
747,70	40,546
747,88	39,365
748,06	40,684
748,24	39,450
748,42	42,049
748,60	39,232
748,78	39,607
748,95	41,562
749,13	43,575
749,31	40,089
749,49	40,258
749,67	40,784
749,85	41,953
750,03	41,095
750,21	38,629
750,39	42,199
750,57	41,592
750,74	41,171
750,92	41,016
751,10	40,854
751,28	36,847
751,46	40,683
751,64	39,902
751,82	40,828
752,00	42,268
752,17	40,242
752,35	39,761
752,53	40,100
752,71	39,047
752,89	41,158
753,07	39,227
753,25	41,482
753,43	37,921
753,60	42,686
753,78	38,622
753,96	42,533
754,14	40,286
754,32	39,793
754,50	40,514
754,68	42,126
754,85	41,246
755,03	40,253
755,21	41,712
755,39	43,198
755,57	40,897
755,75	39,865
755,92	37,771
756,10	39,519
756,28	41,706
756,46	39,700
756,64	40,924
756,82	41,706
756,99	39,798
757,17	38,982
757,35	39,728
757,53	42,239
757,71	42,647
757,89	37,775
758,06	41,262
758,24	40,690
758,42	41,103
758,60	38,896
758,78	39,634
758,95	41,102
759,13	41,717
759,31	40,173
759,49	37,923
759,67	39,514
759,84	40,625
760,02	40,434
760,20	39,850
760,38	40,701
760,56	40,478
760,73	40,804
760,91	42,105
761,09	41,190
761,27	39,590
761,45	40,011
761,62	40,066
761,80	39,528
761,98	42,006
762,16	39,904
762,33	38,974
762,51	43,920
762,69	40,232
762,87	40,041
763,05	40,846
763,22	40,524
763,40	39,250
763,58	37,980
763,76	41,849
763,93	41,022
764,11	40,970
764,29	39,369
764,47	39,734
764,64	41,386
764,82	42,034
765,00	38,740
765,18	38,837
765,35	41,347
765,53	41,119
765,71	38,724
765,89	39,732
766,06	40,679
766,24	39,500
766,42	39,768
766,60	39,509
766,77	40,534
766,95	40,204
767,13	40,680
767,30	38,149
767,48	39,190
767,66	39,127
767,84	36,355
768,01	38,790
768,19	39,416
768,37	40,881
768,54	37,212
768,72	40,607
768,90	40,613
769,08	41,476
769,25	40,354
769,43	39,694
769,61	38,950
769,78	41,684
769,96	37,360
770,14	39,695
770,31	39,944
770,49	42,140
770,67	41,552
770,85	39,965
771,02	39,847
771,20	39,242
771,38	41,206
771,55	37,531
771,73	38,162
771,91	40,904
772,08	42,486
772,26	39,690
772,44	42,340
772,61	39,401
772,79	40,975
772,97	39,225
773,14	38,126
773,32	39,128
773,50	39,261
773,67	41,177
773,85	41,385
774,03	42,111
774,20	37,589
774,38	38,255
774,56	40,756
774,73	40,041
774,91	39,285
775,09	39,857
775,26	39,814
775,44	41,545
775,61	38,288
775,79	39,859
775,97	39,292
776,14	38,378
776,32	37,736
776,50	39,508
776,67	36,911
776,85	40,145
777,03	35,537
777,20	41,654
777,38	41,107
777,55	41,193
777,73	34,872
777,91	39,143
778,08	40,684
778,26	39,257
778,43	41,944
778,61	35,724
778,79	39,380
778,96	39,764
779,14	36,818
779,32	42,073
779,49	40,039
779,67	40,682
779,84	37,972
780,02	41,781
780,20	38,234
780,37	40,833
780,55	36,018
780,72	40,816
780,90	42,354
781,07	40,044
781,25	41,206
781,43	40,419
781,60	38,336
781,78	40,759
781,95	39,980
782,13	41,541
782,30	42,556
782,48	40,653
782,66	38,409
782,83	39,502
783,01	46,198
783,18	42,461
783,36	40,001
783,53	40,979
783,71	39,367
783,89	39,554
784,06	41,049
784,24	42,250
784,41	39,517
784,59	40,367
784,76	41,092
784,94	42,022
785,11	42,724
785,29	40,709
785,46	38,463
785,64	38,338
785,82	40,778
785,99	42,556
786,17	40,073
786,34	39,020
786,52	41,657
786,69	43,960
786,87	39,289
787,04	38,212
787,22	40,886
787,39	42,902
787,57	41,613
787,74	40,480
787,92	44,526
788,09	41,221
788,27	39,825
788,44	41,153
788,62	42,379
788,79	40,298
788,97	40,465
789,14	40,298
789,32	40,541
789,49	40,678
789,67	40,707
789,84	38,372
790,02	40,406
790,19	41,187
790,37	41,445
790,54	42,357
790,72	46,012
790,89	45,466
791,07	41,104
791,24	35,188
791,42	41,656
791,59	42,166
791,77	40,877
791,94	38,127
792,12	39,942
792,29	41,629
792,47	39,599
792,64	42,328
792,81	43,417
792,99	40,280
793,16	40,895
793,34	42,951
793,51	41,025
793,69	43,308
793,86	40,264
794,04	40,547
794,21	44,395
794,39	37,693
794,56	40,131
794,73	43,187
794,91	44,681
795,08	38,580
795,26	40,493
795,43	41,890
795,61	43,965
795,78	42,950
795,95	39,808
796,13	40,983
796,30	42,295
796,48	42,961
796,65	41,189
796,83	40,402
797,00	45,482
797,17	40,809
797,35	41,468
797,52	41,052
797,70	43,936
797,87	40,807
798,04	36,458
798,22	43,026
798,39	39,535
798,57	41,410
798,74	40,313
798,91	39,790
799,09	39,616
799,26	40,661
799,44	41,358
799,61	41,034
799,78	43,087
799,96	42,591
800,13	39,716
800,31	39,709
800,48	43,446
800,65	45,333
800,83	37,581
801,00	45,095
801,17	42,301
801,35	44,832
801,52	42,156
801,70	41,355
801,87	42,915
802,04	42,397
802,22	35,094
802,39	39,343
802,56	46,623
802,74	43,008
802,91	42,072
803,08	38,406
803,26	40,865
803,43	48,196
803,61	40,047
803,78	39,904
803,95	43,075
804,13	42,413
804,30	41,085
804,47	42,521
804,65	45,371
804,82	39,675
804,99	42,942
805,17	44,716
805,34	43,680
805,51	46,431
805,69	42,206
805,86	39,065
806,03	46,950
806,21	42,677
806,38	38,361
806,55	44,573
806,72	47,046
806,90	44,604
807,07	40,892
807,24	43,600
807,42	41,534
807,59	41,450
807,76	38,260
807,94	42,126
808,11	48,032
808,28	48,119
808,45	42,356
808,63	45,504
808,80	43,706
808,97	41,167
809,15	38,296
809,32	41,965
809,49	39,522
809,67	47,298
809,84	40,999
810,01	41,841
810,18	52,389
810,36	43,755
810,53	43,834
810,70	43,866
810,87	45,406
811,05	43,335
811,22	41,138
811,39	45,013
811,57	50,364
811,74	44,725
811,91	43,337
812,08	37,734
812,26	48,285
812,43	40,727
812,60	42,212
812,77	39,896
812,95	44,802
813,12	44,299
813,29	37,430
813,46	40,072
813,64	43,736
813,81	45,660
813,98	41,777
814,15	42,307
814,32	41,736
814,50	47,257
814,67	44,501
814,84	42,854
815,01	45,394
815,19	40,467
815,36	35,573
815,53	42,849
815,70	43,086
815,87	47,439
816,05	38,270
816,22	44,295
816,39	44,202
816,56	49,253
816,74	43,528
816,91	43,232
817,08	51,284
817,25	45,574
817,42	43,513
817,60	42,073
817,77	42,794
817,94	45,789
818,11	42,595
818,28	43,307
818,45	41,356
818,63	42,117
818,80	42,927
818,97	40,878
819,14	45,280
819,31	50,804
819,49	45,003
819,66	39,133
819,83	47,372
820,00	47,447
820,17	41,605
820,34	44,010
820,52	50,840
820,69	43,084
820,86	41,525
821,03	43,289
821,20	46,922
821,37	46,381
821,55	40,966
821,72	46,017
821,89	44,344
822,06	49,029
822,23	44,145
822,40	43,589
822,57	44,431
822,75	48,448
822,92	41,588
823,09	42,400
823,26	46,050
823,43	53,056
823,60	42,185
823,77	42,691
823,94	45,711
824,12	52,115
824,29	44,478
824,46	38,182
824,63	54,645
824,80	47,336
824,97	43,149
825,14	45,511
825,31	46,918
825,49	49,574
825,66	42,236
825,83	39,573
826,00	45,414
826,17	51,291
826,34	43,525
826,51	43,948
826,68	40,658
826,85	44,887
827,02	43,521
827,20	38,841
827,37	48,475
827,54	44,874
827,71	45,572
827,88	48,897
828,05	49,658
828,22	43,080
828,39	52,144
828,56	46,082
828,73	45,774
828,90	47,699
829,07	41,366
829,25	41,833
829,42	41,744
829,59	39,823
829,76	44,563
829,93	38,585
830,10	51,250
830,27	46,765
830,44	47,053
830,61	42,776
830,78	53,425
830,95	45,982
831,12	42,089
831,29	47,735
831,46	46,860
831,63	45,374
831,80	47,089
831,97	44,345
832,14	48,684
832,31	59,112
832,48	47,571
832,65	44,442
832,83	42,861
833,00	47,767
833,17	39,526
833,34	46,679
833,51	49,161
833,68	54,539
833,85	42,996
834,02	39,885
834,19	54,122
834,36	47,278
834,53	34,261
834,70	45,645
834,87	55,630
835,04	48,630
835,21	44,652
835,38	43,060
835,55	47,463
835,72	61,520
835,89	47,767
836,06	50,170
836,23	52,223
836,40	39,135
836,57	42,156
836,74	55,380
836,91	48,161
837,08	51,585
837,25	45,291
837,42	40,045
837,59	41,134
837,76	49,687
837,93	44,535
838,09	41,772
838,26	50,074
838,43	59,843
838,60	42,116
838,77	40,295
838,94	53,481
839,11	41,735
839,28	45,868
839,45	45,561
839,62	45,411
839,79	48,014
839,96	45,306
840,13	46,545
840,30	40,683
840,47	35,604
840,64	34,901
840,81	58,860
840,98	43,631
841,15	52,361
841,32	38,223
841,48	52,634
841,65	49,180
841,82	46,667
841,99	52,015
842,16	41,602
842,33	51,793
842,50	57,218
842,67	43,842
842,84	47,442
843,01	48,187
843,18	46,429
843,35	45,603
843,52	34,817
843,68	56,971
843,85	49,038
844,02	46,510
844,19	42,808
844,36	59,412
844,53	49,164
844,70	46,612
844,87	53,685
845,04	50,721
845,21	38,243
845,37	54,614
845,54	47,775
845,71	49,408
845,88	65,082
846,05	42,408
846,22	40,766
846,39	51,573
846,56	56,903
846,72	33,734
846,89	43,221
847,06	62,007
847,23	58,761
847,40	38,978
847,57	44,056
847,74	53,156
847,90	60,294
848,07	51,372
848,24	43,441
848,41	44,782
848,58	62,390
848,75	38,364
848,92	49,959
849,08	49,369
849,25	41,673
849,42	36,504
849,59	57,137
849,76	47,708
849,93	40,457
850,09	50,550
850,26	40,871
850,43	64,422
850,60	45,564
850,77	44,860
850,94	45,520
851,10	49,118
851,27	48,003
851,44	34,513
851,61	50,963
851,78	58,914
851,95	57,667
852,11	38,156
852,28	43,919
852,45	48,141
852,62	47,334
852,79	54,644
852,95	45,084
853,12	52,021
853,29	50,685
853,46	44,767
853,63	55,387
853,79	56,094
853,96	47,514
854,13	54,124
854,30	41,557
854,46	63,267
854,63	43,168
854,80	51,995
854,97	40,476
855,14	74,547
855,30	58,562
855,47	43,837
855,64	48,513
855,81	51,088
855,97	64,257
856,14	54,355
856,31	41,584
856,48	64,603
856,65	73,191
856,81	42,612
856,98	48,564
857,15	46,993
857,32	67,002
857,48	39,565
857,65	54,182
857,82	61,613
857,99	59,256
858,15	53,855
858,32	50,072
858,49	59,080
858,65	71,526
858,82	65,695
858,99	41,389
859,16	62,579
859,32	54,858
859,49	45,683
859,66	52,764
859,83	59,607
859,99	49,392
860,16	52,716
860,33	45,390
860,49	61,897
860,66	62,275
860,83	52,132
861,00	52,980
861,16	74,045
861,33	59,747
861,50	49,496
861,66	51,478
861,83	77,311
862,00	55,131
862,16	55,230
862,33	54,827
862,50	104,438
862,67	59,084
862,83	47,647
863,00	53,959
863,17	73,075
863,33	56,396
863,50	21,510
863,67	49,934
863,83	73,803
864,00	75,253
864,17	42,208
864,33	54,931
864,50	68,213
864,67	55,036
864,83	36,342
865,00	43,855
865,17	36,052
865,33	72,116
865,50	35,202
865,67	33,923
865,83	70,016
866,00	78,160
866,17	70,469
866,33	55,264
866,50	75,213
866,66	60,403
866,83	76,255
867,00	65,510
867,16	84,173
867,33	105,186
867,50	31,748
867,66	36,778
867,83	70,274
868,00	61,623
868,16	50,513
868,33	50,837
868,49	66,464
868,66	63,115
868,83	60,704
868,99	71,057
869,16	70,290
869,32	91,456
869,49	54,140
869,66	41,997
869,82	85,283
869,99	68,865
870,15	43,527
870,32	68,675
870,49	88,852
870,65	129,660
870,82	65,152
870,98	61,660
871,15	106,977
871,32	59,976
871,48	21,879
871,65	48,125
871,81	61,765
871,98	35,013
872,15	47,265
872,31	30,145
872,48	100,653
872,64	46,739
872,81	22,389
872,97	73,209
873,14	100,852
873,31	71,003
873,47	63,868
873,64	62,968
873,80	109,860
873,97	75,853
874,13	31,357
874,30	44,812
874,46	84,214
874,63	60,979
874,80	61,351
874,96	37,522
875,13	122,532
875,29	70,164
875,46	86,456
875,62	22,835
875,79	108,929
875,95	56,631
876,12	56,165
876,28	9,392
876,45	103,910
876,61	60,530
876,78	59,850
876,94	60,031
877,11	107,116
877,27	79,863
877,44	113,879
877,60	54,320
877,77	122,521
877,94	99,486
878,10	47,155
878,27	92,045
878,43	116,609
878,60	61,659
878,76	54,033
878,93	53,930
879,09	129,467
879,26	108,571
879,42	83,379
879,58	35,711
879,75	72,663
879,91	106,232
880,08	-25,137
880,24	61,105
880,41	60,271
880,57	122,374
880,74	17,955
880,90	38,690
881,07	30,946
881,23	130,312
881,40	46,506
881,56	94,919
881,73	105,753
881,89	130,432
882,06	-17,645
882,22	150,463
882,38	137,466
882,55	137,641
882,71	74,374
882,88	39,937
883,04	170,921
883,21	167,542
883,37	96,827
883,54	50,269
883,70	201,422
883,86	104,781
884,03	66,438
884,19	53,964
884,36	-17,264
884,52	218,654
884,69	55,389
884,85	61,573
885,01	161,507
885,18	131,439
885,34	127,248
885,51	35,710
885,67	84,825
>>>>> Data<<<<< Espectral Procesado Extremo
